# t ax ay az
0 0.004030223593 -4.935600423e-19 -0.0001243896171
0.01 0.004030207864 7.240913641e-07 -0.0001244069187
0.02 0.004030192011 1.44817177e-06 -0.0001244242153
0.03 0.004030176034 2.1722412e-06 -0.0001244415067
0.04 0.004030159931 2.896299636e-06 -0.0001244587931
0.05 0.004030143705 3.620347058e-06 -0.0001244760743
0.06 0.004030127353 4.344383449e-06 -0.0001244933505
0.07 0.004030110877 5.06840879e-06 -0.0001245106216
0.08 0.004030094277 5.792423064e-06 -0.0001245278875
0.09 0.004030077552 6.51642625e-06 -0.0001245451484
0.1 0.004030060702 7.240418332e-06 -0.0001245624042
0.11 0.004030043728 7.96439929e-06 -0.0001245796549
0.12 0.00403002663 8.688369107e-06 -0.0001245969005
0.13 0.004030009406 9.412327764e-06 -0.0001246141409
0.14 0.004029992059 1.013627524e-05 -0.0001246313763
0.15 0.004029974586 1.086021152e-05 -0.0001246486066
0.16 0.00402995699 1.158413659e-05 -0.0001246658318
0.17 0.004029939269 1.230805042e-05 -0.0001246830519
0.18 0.004029921423 1.3031953e-05 -0.0001247002669
0.19 0.004029903453 1.375584431e-05 -0.0001247174767
0.2 0.004029885358 1.447972434e-05 -0.0001247346815
0.21 0.004029867139 1.520359305e-05 -0.0001247518812
0.22 0.004029848795 1.592745044e-05 -0.0001247690758
0.23 0.004029830327 1.665129649e-05 -0.0001247862653
0.24 0.004029811734 1.737513117e-05 -0.0001248034496
0.25 0.004029793017 1.809895448e-05 -0.0001248206289
0.26 0.004029774176 1.882276638e-05 -0.000124837803
0.27 0.00402975521 1.954656687e-05 -0.0001248549721
0.28 0.004029736119 2.027035593e-05 -0.0001248721361
0.29 0.004029716904 2.099413352e-05 -0.0001248892949
0.3 0.004029697565 2.171789965e-05 -0.0001249064486
0.31 0.004029678101 2.244165429e-05 -0.0001249235973
0.32 0.004029658513 2.316539742e-05 -0.0001249407408
0.33 0.0040296388 2.388912902e-05 -0.0001249578792
0.34 0.004029618963 2.461284908e-05 -0.0001249750125
0.35 0.004029599002 2.533655757e-05 -0.0001249921407
0.36 0.004029578916 2.606025448e-05 -0.0001250092638
0.37 0.004029558706 2.678393979e-05 -0.0001250263818
0.38 0.004029538371 2.750761348e-05 -0.0001250434947
0.39 0.004029517912 2.823127554e-05 -0.0001250606025
0.4 0.004029497329 2.895492594e-05 -0.0001250777051
0.41 0.004029476621 2.967856466e-05 -0.0001250948027
0.42 0.004029455789 3.04021917e-05 -0.0001251118951
0.43 0.004029434832 3.112580702e-05 -0.0001251289825
0.44 0.004029413751 3.184941062e-05 -0.0001251460647
0.45 0.004029392546 3.257300247e-05 -0.0001251631418
0.46 0.004029371216 3.329658255e-05 -0.0001251802138
0.47 0.004029349762 3.402015085e-05 -0.0001251972807
0.48 0.004029328184 3.474370735e-05 -0.0001252143424
0.49 0.004029306481 3.546725203e-05 -0.0001252313991
0.5 0.004029284654 3.619078487e-05 -0.0001252484506
0.51 0.004029262703 3.691430586e-05 -0.0001252654971
0.52 0.004029240627 3.763781497e-05 -0.0001252825384
0.53 0.004029218427 3.836131218e-05 -0.0001252995746
0.54 0.004029196103 3.908479749e-05 -0.0001253166057
0.55 0.004029173655 3.980827086e-05 -0.0001253336316
0.56 0.004029151082 4.053173229e-05 -0.0001253506525
0.57 0.004029128385 4.125518175e-05 -0.0001253676682
0.58 0.004029105563 4.197861923e-05 -0.0001253846788
0.59 0.004029082618 4.270204471e-05 -0.0001254016843
0.6 0.004029059548 4.342545816e-05 -0.0001254186847
0.61 0.004029036353 4.414885958e-05 -0.00012543568
0.62 0.004029013035 4.487224893e-05 -0.0001254526701
0.63 0.004028989592 4.559562621e-05 -0.0001254696552
0.64 0.004028966025 4.63189914e-05 -0.0001254866351
0.65 0.004028942334 4.704234448e-05 -0.0001255036099
0.66 0.004028918518 4.776568542e-05 -0.0001255205795
0.67 0.004028894578 4.848901422e-05 -0.0001255375441
0.68 0.004028870514 4.921233084e-05 -0.0001255545035
0.69 0.004028846326 4.993563529e-05 -0.0001255714578
0.7 0.004028822014 5.065892753e-05 -0.000125588407
0.71 0.004028797577 5.138220755e-05 -0.0001256053511
0.72 0.004028773016 5.210547532e-05 -0.00012562229
0.73 0.004028748331 5.282873084e-05 -0.0001256392238
0.74 0.004028723522 5.355197409e-05 -0.0001256561525
0.75 0.004028698588 5.427520504e-05 -0.0001256730761
0.76 0.004028673531 5.499842367e-05 -0.0001256899946
0.77 0.004028648349 5.572162998e-05 -0.0001257069079
0.78 0.004028623043 5.644482393e-05 -0.0001257238161
0.79 0.004028597612 5.716800552e-05 -0.0001257407192
0.8 0.004028572058 5.789117472e-05 -0.0001257576171
0.81 0.00402854638 5.861433152e-05 -0.0001257745099
0.82 0.004028520577 5.93374759e-05 -0.0001257913976
0.83 0.00402849465 6.006060783e-05 -0.0001258082802
0.84 0.004028468599 6.078372731e-05 -0.0001258251577
0.85 0.004028442424 6.150683431e-05 -0.00012584203
0.86 0.004028416124 6.222992881e-05 -0.0001258588972
0.87 0.004028389701 6.29530108e-05 -0.0001258757592
0.88 0.004028363153 6.367608026e-05 -0.0001258926162
0.89 0.004028336482 6.439913717e-05 -0.000125909468
0.9 0.004028309686 6.512218151e-05 -0.0001259263146
0.91 0.004028282766 6.584521327e-05 -0.0001259431562
0.92 0.004028255722 6.656823242e-05 -0.0001259599926
0.93 0.004028228554 6.729123895e-05 -0.0001259768239
0.94 0.004028201262 6.801423284e-05 -0.00012599365
0.95 0.004028173846 6.873721406e-05 -0.0001260104711
0.96 0.004028146305 6.946018262e-05 -0.000126027287
0.97 0.004028118641 7.018313847e-05 -0.0001260440977
0.98 0.004028090852 7.090608162e-05 -0.0001260609033
0.99 0.00402806294 7.162901203e-05 -0.0001260777038
1 0.004028034903 7.235192969e-05 -0.0001260944992
1.01 0.004028006742 7.307483458e-05 -0.0001261112894
1.02 0.004027978458 7.379772669e-05 -0.0001261280745
1.03 0.004027950049 7.452060599e-05 -0.0001261448545
1.04 0.004027921516 7.524347247e-05 -0.0001261616293
1.05 0.004027892859 7.596632611e-05 -0.000126178399
1.06 0.004027864078 7.668916689e-05 -0.0001261951635
1.07 0.004027835173 7.74119948e-05 -0.000126211923
1.08 0.004027806144 7.813480981e-05 -0.0001262286772
1.09 0.004027776991 7.88576119e-05 -0.0001262454264
1.1 0.004027747714 7.958040107e-05 -0.0001262621704
1.11 0.004027718313 8.030317728e-05 -0.0001262789093
1.12 0.004027688789 8.102594053e-05 -0.000126295643
1.13 0.00402765914 8.174869079e-05 -0.0001263123716
1.14 0.004027629367 8.247142804e-05 -0.000126329095
1.15 0.00402759947 8.319415228e-05 -0.0001263458134
1.16 0.004027569449 8.391686347e-05 -0.0001263625265
1.17 0.004027539304 8.463956161e-05 -0.0001263792346
1.18 0.004027509035 8.536224666e-05 -0.0001263959375
1.19 0.004027478642 8.608491863e-05 -0.0001264126352
1.2 0.004027448126 8.680757748e-05 -0.0001264293278
1.21 0.004027417485 8.75302232e-05 -0.0001264460153
1.22 0.00402738672 8.825285577e-05 -0.0001264626977
1.23 0.004027355832 8.897547517e-05 -0.0001264793748
1.24 0.004027324819 8.969808139e-05 -0.0001264960469
1.25 0.004027293683 9.04206744e-05 -0.0001265127138
1.26 0.004027262423 9.114325419e-05 -0.0001265293756
1.27 0.004027231038 9.186582075e-05 -0.0001265460322
1.28 0.00402719953 9.258837404e-05 -0.0001265626837
1.29 0.004027167898 9.331091406e-05 -0.00012657933
1.3 0.004027136142 9.403344078e-05 -0.0001265959712
1.31 0.004027104263 9.475595419e-05 -0.0001266126072
1.32 0.004027072259 9.547845427e-05 -0.0001266292381
1.33 0.004027040131 9.620094101e-05 -0.0001266458639
1.34 0.00402700788 9.692341437e-05 -0.0001266624845
1.35 0.004026975504 9.764587435e-05 -0.0001266790999
1.36 0.004026943005 9.836832093e-05 -0.0001266957102
1.37 0.004026910382 9.909075409e-05 -0.0001267123154
1.38 0.004026877635 9.981317381e-05 -0.0001267289154
1.39 0.004026844764 0.0001005355801 -0.0001267455103
1.4 0.00402681177 0.0001012579729 -0.0001267621
1.41 0.004026778651 0.0001019803521 -0.0001267786846
1.42 0.004026745409 0.0001027027179 -0.000126795264
1.43 0.004026712043 0.0001034250702 -0.0001268118382
1.44 0.004026678553 0.0001041474089 -0.0001268284074
1.45 0.004026644939 0.000104869734 -0.0001268449713
1.46 0.004026611202 0.0001055920456 -0.0001268615301
1.47 0.00402657734 0.0001063143435 -0.0001268780838
1.48 0.004026543355 0.0001070366279 -0.0001268946323
1.49 0.004026509246 0.0001077588986 -0.0001269111757
1.5 0.004026475013 0.0001084811556 -0.0001269277139
1.51 0.004026440657 0.000109203399 -0.000126944247
1.52 0.004026406177 0.0001099256286 -0.0001269607749
1.53 0.004026371572 0.0001106478446 -0.0001269772976
1.54 0.004026336845 0.0001113700468 -0.0001269938152
1.55 0.004026301993 0.0001120922353 -0.0001270103277
1.56 0.004026267018 0.00011281441 -0.0001270268349
1.57 0.004026231919 0.000113536571 -0.0001270433371
1.58 0.004026196696 0.0001142587181 -0.0001270598341
1.59 0.004026161349 0.0001149808514 -0.0001270763259
1.6 0.004026125879 0.0001157029709 -0.0001270928126
1.61 0.004026090285 0.0001164250766 -0.0001271092941
1.62 0.004026054567 0.0001171471683 -0.0001271257704
1.63 0.004026018725 0.0001178692462 -0.0001271422416
1.64 0.00402598276 0.0001185913101 -0.0001271587076
1.65 0.004025946671 0.0001193133602 -0.0001271751685
1.66 0.004025910459 0.0001200353963 -0.0001271916242
1.67 0.004025874122 0.0001207574184 -0.0001272080748
1.68 0.004025837662 0.0001214794265 -0.0001272245202
1.69 0.004025801079 0.0001222014207 -0.0001272409605
1.7 0.004025764371 0.0001229234008 -0.0001272573955
1.71 0.00402572754 0.0001236453669 -0.0001272738255
1.72 0.004025690586 0.0001243673189 -0.0001272902502
1.73 0.004025653507 0.0001250892569 -0.0001273066698
1.74 0.004025616305 0.0001258111808 -0.0001273230843
1.75 0.00402557898 0.0001265330905 -0.0001273394936
1.76 0.00402554153 0.0001272549862 -0.0001273558977
1.77 0.004025503957 0.0001279768677 -0.0001273722966
1.78 0.004025466261 0.000128698735 -0.0001273886904
1.79 0.004025428441 0.0001294205882 -0.000127405079
1.8 0.004025390497 0.0001301424272 -0.0001274214625
1.81 0.004025352429 0.0001308642519 -0.0001274378408
1.82 0.004025314238 0.0001315860624 -0.0001274542139
1.83 0.004025275924 0.0001323078587 -0.0001274705819
1.84 0.004025237485 0.0001330296407 -0.0001274869447
1.85 0.004025198923 0.0001337514084 -0.0001275033024
1.86 0.004025160238 0.0001344731618 -0.0001275196548
1.87 0.004025121429 0.0001351949009 -0.0001275360021
1.88 0.004025082496 0.0001359166256 -0.0001275523443
1.89 0.00402504344 0.000136638336 -0.0001275686813
1.9 0.00402500426 0.000137360032 -0.0001275850131
1.91 0.004024964957 0.0001380817136 -0.0001276013397
1.92 0.00402492553 0.0001388033808 -0.0001276176612
1.93 0.00402488598 0.0001395250336 -0.0001276339775
1.94 0.004024846306 0.0001402466719 -0.0001276502886
1.95 0.004024806508 0.0001409682957 -0.0001276665946
1.96 0.004024766587 0.0001416899051 -0.0001276828954
1.97 0.004024726543 0.0001424115 -0.000127699191
1.98 0.004024686375 0.0001431330803 -0.0001277154815
1.99 0.004024646083 0.0001438546461 -0.0001277317667
2 0.004024605668 0.0001445761973 -0.0001277480468
2.01 0.004024565129 0.000145297734 -0.0001277643218
2.02 0.004024524467 0.0001460192561 -0.0001277805916
2.03 0.004024483681 0.0001467407635 -0.0001277968562
2.04 0.004024442772 0.0001474622564 -0.0001278131156
2.05 0.00402440174 0.0001481837346 -0.0001278293698
2.06 0.004024360583 0.0001489051981 -0.0001278456189
2.07 0.004024319304 0.0001496266469 -0.0001278618628
2.08 0.004024277901 0.0001503480811 -0.0001278781015
2.09 0.004024236374 0.0001510695005 -0.0001278943351
2.1 0.004024194724 0.0001517909052 -0.0001279105635
2.11 0.004024152951 0.0001525122951 -0.0001279267867
2.12 0.004024111054 0.0001532336703 -0.0001279430047
2.13 0.004024069034 0.0001539550307 -0.0001279592176
2.14 0.00402402689 0.0001546763762 -0.0001279754252
2.15 0.004023984623 0.0001553977069 -0.0001279916277
2.16 0.004023942232 0.0001561190228 -0.0001280078251
2.17 0.004023899718 0.0001568403239 -0.0001280240172
2.18 0.004023857081 0.00015756161 -0.0001280402042
2.19 0.00402381432 0.0001582828813 -0.000128056386
2.2 0.004023771436 0.0001590041376 -0.0001280725626
2.21 0.004023728428 0.000159725379 -0.000128088734
2.22 0.004023685297 0.0001604466055 -0.0001281049003
2.23 0.004023642043 0.0001611678169 -0.0001281210613
2.24 0.004023598665 0.0001618890134 -0.0001281372172
2.25 0.004023555164 0.0001626101949 -0.0001281533679
2.26 0.00402351154 0.0001633313614 -0.0001281695135
2.27 0.004023467792 0.0001640525128 -0.0001281856538
2.28 0.004023423921 0.0001647736492 -0.000128201789
2.29 0.004023379926 0.0001654947705 -0.000128217919
2.3 0.004023335808 0.0001662158767 -0.0001282340438
2.31 0.004023291567 0.0001669369677 -0.0001282501634
2.32 0.004023247202 0.0001676580437 -0.0001282662779
2.33 0.004023202714 0.0001683791045 -0.0001282823871
2.34 0.004023158103 0.0001691001501 -0.0001282984912
2.35 0.004023113368 0.0001698211806 -0.0001283145901
2.36 0.004023068511 0.0001705421958 -0.0001283306838
2.37 0.004023023529 0.0001712631958 -0.0001283467723
2.38 0.004022978425 0.0001719841806 -0.0001283628556
2.39 0.004022933197 0.0001727051502 -0.0001283789338
2.4 0.004022887846 0.0001734261044 -0.0001283950067
2.41 0.004022842372 0.0001741470434 -0.0001284110745
2.42 0.004022796774 0.000174867967 -0.0001284271371
2.43 0.004022751053 0.0001755888754 -0.0001284431945
2.44 0.004022705209 0.0001763097684 -0.0001284592467
2.45 0.004022659242 0.000177030646 -0.0001284752937
2.46 0.004022613151 0.0001777515082 -0.0001284913356
2.47 0.004022566937 0.0001784723551 -0.0001285073722
2.48 0.0040225206 0.0001791931865 -0.0001285234037
2.49 0.004022474139 0.0001799140025 -0.00012853943
2.5 0.004022427556 0.000180634803 -0.0001285554511
2.51 0.004022380849 0.0001813555881 -0.000128571467
2.52 0.004022334019 0.0001820763577 -0.0001285874777
2.53 0.004022287065 0.0001827971118 -0.0001286034832
2.54 0.004022239989 0.0001835178503 -0.0001286194835
2.55 0.004022192789 0.0001842385733 -0.0001286354786
2.56 0.004022145466 0.0001849592808 -0.0001286514686
2.57 0.00402209802 0.0001856799726 -0.0001286674533
2.58 0.004022050451 0.0001864006489 -0.0001286834329
2.59 0.004022002758 0.0001871213096 -0.0001286994072
2.6 0.004021954942 0.0001878419546 -0.0001287153764
2.61 0.004021907004 0.000188562584 -0.0001287313404
2.62 0.004021858942 0.0001892831977 -0.0001287472991
2.63 0.004021810756 0.0001900037957 -0.0001287632527
2.64 0.004021762448 0.0001907243781 -0.0001287792011
2.65 0.004021714017 0.0001914449447 -0.0001287951443
2.66 0.004021665462 0.0001921654956 -0.0001288110823
2.67 0.004021616784 0.0001928860307 -0.0001288270151
2.68 0.004021567983 0.00019360655 -0.0001288429427
2.69 0.004021519059 0.0001943270536 -0.0001288588651
2.7 0.004021470012 0.0001950475413 -0.0001288747824
2.71 0.004021420842 0.0001957680132 -0.0001288906944
2.72 0.004021371548 0.0001964884693 -0.0001289066012
2.73 0.004021322132 0.0001972089095 -0.0001289225028
2.74 0.004021272592 0.0001979293338 -0.0001289383992
2.75 0.00402122293 0.0001986497422 -0.0001289542905
2.76 0.004021173144 0.0001993701348 -0.0001289701765
2.77 0.004021123235 0.0002000905113 -0.0001289860573
2.78 0.004021073203 0.000200810872 -0.0001290019329
2.79 0.004021023048 0.0002015312166 -0.0001290178034
2.8 0.00402097277 0.0002022515453 -0.0001290336686
2.81 0.004020922369 0.000202971858 -0.0001290495286
2.82 0.004020871845 0.0002036921546 -0.0001290653835
2.83 0.004020821198 0.0002044124352 -0.0001290812331
2.84 0.004020770427 0.0002051326997 -0.0001290970775
2.85 0.004020719534 0.0002058529482 -0.0001291129167
2.86 0.004020668518 0.0002065731806 -0.0001291287507
2.87 0.004020617378 0.0002072933968 -0.0001291445795
2.88 0.004020566116 0.000208013597 -0.0001291604032
2.89 0.004020514731 0.000208733781 -0.0001291762216
2.9 0.004020463222 0.0002094539488 -0.0001291920348
2.91 0.004020411591 0.0002101741004 -0.0001292078428
2.92 0.004020359836 0.0002108942358 -0.0001292236456
2.93 0.004020307959 0.0002116143551 -0.0001292394431
2.94 0.004020255959 0.000212334458 -0.0001292552355
2.95 0.004020203835 0.0002130545448 -0.0001292710227
2.96 0.004020151589 0.0002137746152 -0.0001292868047
2.97 0.00402009922 0.0002144946694 -0.0001293025814
2.98 0.004020046727 0.0002152147072 -0.000129318353
2.99 0.004019994112 0.0002159347288 -0.0001293341194
3 0.004019941374 0.000216654734 -0.0001293498805
3.01 0.004019888513 0.0002173747228 -0.0001293656364
3.02 0.004019835529 0.0002180946952 -0.0001293813872
3.03 0.004019782422 0.0002188146513 -0.0001293971327
3.04 0.004019729192 0.0002195345909 -0.000129412873
3.05 0.004019675839 0.0002202545141 -0.0001294286081
3.06 0.004019622363 0.0002209744209 -0.000129444338
3.07 0.004019568765 0.0002216943112 -0.0001294600626
3.08 0.004019515043 0.000222414185 -0.0001294757821
3.09 0.004019461198 0.0002231340423 -0.0001294914964
3.1 0.004019407231 0.0002238538831 -0.0001295072054
3.11 0.004019353141 0.0002245737073 -0.0001295229093
3.12 0.004019298928 0.000225293515 -0.0001295386079
3.13 0.004019244592 0.0002260133061 -0.0001295543013
3.14 0.004019190133 0.0002267330806 -0.0001295699895
3.15 0.004019135551 0.0002274528386 -0.0001295856725
3.16 0.004019080846 0.0002281725798 -0.0001296013502
3.17 0.004019026019 0.0002288923045 -0.0001296170228
3.18 0.004018971068 0.0002296120125 -0.0001296326901
3.19 0.004018915995 0.0002303317038 -0.0001296483523
3.2 0.004018860799 0.0002310513784 -0.0001296640092
3.21 0.00401880548 0.0002317710363 -0.0001296796609
3.22 0.004018750039 0.0002324906774 -0.0001296953074
3.23 0.004018694474 0.0002332103018 -0.0001297109486
3.24 0.004018638787 0.0002339299095 -0.0001297265847
3.25 0.004018582977 0.0002346495003 -0.0001297422155
3.26 0.004018527044 0.0002353690744 -0.0001297578412
3.27 0.004018470988 0.0002360886316 -0.0001297734616
3.28 0.004018414809 0.000236808172 -0.0001297890767
3.29 0.004018358508 0.0002375276955 -0.0001298046867
3.3 0.004018302084 0.0002382472022 -0.0001298202915
3.31 0.004018245537 0.0002389666919 -0.000129835891
3.32 0.004018188868 0.0002396861648 -0.0001298514853
3.33 0.004018132075 0.0002404056207 -0.0001298670744
3.34 0.00401807516 0.0002411250597 -0.0001298826583
3.35 0.004018018122 0.0002418444817 -0.0001298982369
3.36 0.004017960961 0.0002425638867 -0.0001299138103
3.37 0.004017903678 0.0002432832748 -0.0001299293785
3.38 0.004017846272 0.0002440026458 -0.0001299449415
3.39 0.004017788743 0.0002447219998 -0.0001299604993
3.4 0.004017731091 0.0002454413367 -0.0001299760518
3.41 0.004017673317 0.0002461606566 -0.0001299915992
3.42 0.00401761542 0.0002468799593 -0.0001300071413
3.43 0.0040175574 0.000247599245 -0.0001300226782
3.44 0.004017499258 0.0002483185136 -0.0001300382098
3.45 0.004017440993 0.000249037765 -0.0001300537362
3.46 0.004017382605 0.0002497569992 -0.0001300692574
3.47 0.004017324094 0.0002504762163 -0.0001300847734
3.48 0.004017265461 0.0002511954162 -0.0001301002842
3.49 0.004017206705 0.0002519145989 -0.0001301157897
3.5 0.004017147827 0.0002526337643 -0.00013013129
3.51 0.004017088825 0.0002533529125 -0.0001301467851
3.52 0.004017029701 0.0002540720435 -0.000130162275
3.53 0.004016970455 0.0002547911571 -0.0001301777596
3.54 0.004016911086 0.0002555102535 -0.000130193239
3.55 0.004016851594 0.0002562293325 -0.0001302087132
3.56 0.00401679198 0.0002569483942 -0.0001302241821
3.57 0.004016732242 0.0002576674386 -0.0001302396458
3.58 0.004016672383 0.0002583864656 -0.0001302551043
3.59 0.0040166124 0.0002591054752 -0.0001302705576
3.6 0.004016552296 0.0002598244674 -0.0001302860056
3.61 0.004016492068 0.0002605434421 -0.0001303014484
3.62 0.004016431718 0.0002612623995 -0.000130316886
3.63 0.004016371245 0.0002619813393 -0.0001303323184
3.64 0.00401631065 0.0002627002617 -0.0001303477455
3.65 0.004016249932 0.0002634191666 -0.0001303631674
3.66 0.004016189092 0.000264138054 -0.000130378584
3.67 0.004016128129 0.0002648569239 -0.0001303939954
3.68 0.004016067043 0.0002655757762 -0.0001304094016
3.69 0.004016005835 0.000266294611 -0.0001304248026
3.7 0.004015944504 0.0002670134282 -0.0001304401983
3.71 0.004015883051 0.0002677322277 -0.0001304555888
3.72 0.004015821475 0.0002684510097 -0.0001304709741
3.73 0.004015759777 0.000269169774 -0.0001304863541
3.74 0.004015697956 0.0002698885207 -0.0001305017289
3.75 0.004015636012 0.0002706072497 -0.0001305170985
3.76 0.004015573947 0.000271325961 -0.0001305324628
3.77 0.004015511758 0.0002720446547 -0.0001305478219
3.78 0.004015449447 0.0002727633306 -0.0001305631757
3.79 0.004015387014 0.0002734819887 -0.0001305785244
3.8 0.004015324458 0.0002742006291 -0.0001305938678
3.81 0.004015261779 0.0002749192517 -0.0001306092059
3.82 0.004015198979 0.0002756378566 -0.0001306245388
3.83 0.004015136055 0.0002763564436 -0.0001306398665
3.84 0.004015073009 0.0002770750128 -0.0001306551889
3.85 0.004015009841 0.0002777935641 -0.0001306705061
3.86 0.00401494655 0.0002785120976 -0.0001306858181
3.87 0.004014883137 0.0002792306132 -0.0001307011248
3.88 0.004014819601 0.0002799491109 -0.0001307164263
3.89 0.004014755943 0.0002806675907 -0.0001307317226
3.9 0.004014692163 0.0002813860526 -0.0001307470136
3.91 0.00401462826 0.0002821044965 -0.0001307622993
3.92 0.004014564234 0.0002828229225 -0.0001307775799
3.93 0.004014500086 0.0002835413304 -0.0001307928552
3.94 0.004014435816 0.0002842597204 -0.0001308081252
3.95 0.004014371423 0.0002849780923 -0.00013082339
3.96 0.004014306908 0.0002856964462 -0.0001308386496
3.97 0.004014242271 0.000286414782 -0.0001308539039
3.98 0.004014177511 0.0002871330998 -0.000130869153
3.99 0.004014112629 0.0002878513995 -0.0001308843968
4 0.004014047624 0.0002885696811 -0.0001308996354
4.01 0.004013982497 0.0002892879445 -0.0001309148688
4.02 0.004013917248 0.0002900061898 -0.0001309300969
4.03 0.004013851876 0.0002907244169 -0.0001309453198
4.04 0.004013786382 0.0002914426259 -0.0001309605374
4.05 0.004013720765 0.0002921608167 -0.0001309757498
4.06 0.004013655026 0.0002928789892 -0.0001309909569
4.07 0.004013589165 0.0002935971435 -0.0001310061588
4.08 0.004013523182 0.0002943152796 -0.0001310213554
4.09 0.004013457076 0.0002950333974 -0.0001310365468
4.1 0.004013390848 0.0002957514969 -0.000131051733
4.11 0.004013324497 0.0002964695781 -0.0001310669139
4.12 0.004013258025 0.000297187641 -0.0001310820895
4.13 0.004013191429 0.0002979056856 -0.0001310972599
4.14 0.004013124712 0.0002986237118 -0.0001311124251
4.15 0.004013057872 0.0002993417196 -0.000131127585
4.16 0.00401299091 0.0003000597091 -0.0001311427397
4.17 0.004012923826 0.0003007776801 -0.0001311578891
4.18 0.00401285662 0.0003014956327 -0.0001311730333
4.19 0.004012789291 0.0003022135669 -0.0001311881722
4.2 0.00401272184 0.0003029314826 -0.0001312033059
4.21 0.004012654267 0.0003036493798 -0.0001312184343
4.22 0.004012586571 0.0003043672586 -0.0001312335575
4.23 0.004012518753 0.0003050851188 -0.0001312486754
4.24 0.004012450813 0.0003058029605 -0.0001312637881
4.25 0.004012382751 0.0003065207837 -0.0001312788955
4.26 0.004012314566 0.0003072385882 -0.0001312939976
4.27 0.00401224626 0.0003079563743 -0.0001313090946
4.28 0.004012177831 0.0003086741417 -0.0001313241862
4.29 0.004012109279 0.0003093918905 -0.0001313392726
4.3 0.004012040606 0.0003101096206 -0.0001313543538
4.31 0.00401197181 0.0003108273321 -0.0001313694297
4.32 0.004011902893 0.000311545025 -0.0001313845004
4.33 0.004011833853 0.0003122626991 -0.0001313995657
4.34 0.00401176469 0.0003129803545 -0.0001314146259
4.35 0.004011695406 0.0003136979913 -0.0001314296808
4.36 0.004011626 0.0003144156093 -0.0001314447304
4.37 0.004011556471 0.0003151332085 -0.0001314597748
4.38 0.00401148682 0.0003158507889 -0.0001314748139
4.39 0.004011417047 0.0003165683506 -0.0001314898478
4.4 0.004011347152 0.0003172858934 -0.0001315048764
4.41 0.004011277135 0.0003180034175 -0.0001315198997
4.42 0.004011206995 0.0003187209226 -0.0001315349178
4.43 0.004011136734 0.000319438409 -0.0001315499307
4.44 0.00401106635 0.0003201558764 -0.0001315649383
4.45 0.004010995844 0.0003208733249 -0.0001315799406
4.46 0.004010925216 0.0003215907546 -0.0001315949376
4.47 0.004010854466 0.0003223081653 -0.0001316099295
4.48 0.004010783594 0.000323025557 -0.000131624916
4.49 0.0040107126 0.0003237429298 -0.0001316398973
4.5 0.004010641483 0.0003244602836 -0.0001316548733
4.51 0.004010570245 0.0003251776184 -0.0001316698441
4.52 0.004010498884 0.0003258949342 -0.0001316848096
4.53 0.004010427402 0.0003266122309 -0.0001316997698
4.54 0.004010355797 0.0003273295086 -0.0001317147248
4.55 0.004010284071 0.0003280467672 -0.0001317296746
4.56 0.004010212222 0.0003287640067 -0.000131744619
4.57 0.004010140251 0.0003294812272 -0.0001317595582
4.58 0.004010068158 0.0003301984285 -0.0001317744922
4.59 0.004009995943 0.0003309156106 -0.0001317894208
4.6 0.004009923606 0.0003316327736 -0.0001318043442
4.61 0.004009851147 0.0003323499174 -0.0001318192624
4.62 0.004009778566 0.0003330670421 -0.0001318341753
4.63 0.004009705863 0.0003337841475 -0.0001318490829
4.64 0.004009633038 0.0003345012337 -0.0001318639853
4.65 0.004009560091 0.0003352183006 -0.0001318788824
4.66 0.004009487022 0.0003359353483 -0.0001318937742
4.67 0.004009413831 0.0003366523767 -0.0001319086607
4.68 0.004009340518 0.0003373693858 -0.000131923542
4.69 0.004009267083 0.0003380863756 -0.0001319384181
4.7 0.004009193526 0.000338803346 -0.0001319532888
4.71 0.004009119847 0.0003395202972 -0.0001319681543
4.72 0.004009046047 0.0003402372289 -0.0001319830146
4.73 0.004008972124 0.0003409541412 -0.0001319978695
4.74 0.004008898079 0.0003416710342 -0.0001320127192
4.75 0.004008823912 0.0003423879077 -0.0001320275636
4.76 0.004008749623 0.0003431047618 -0.0001320424028
4.77 0.004008675213 0.0003438215965 -0.0001320572367
4.78 0.00400860068 0.0003445384116 -0.0001320720653
4.79 0.004008526026 0.0003452552073 -0.0001320868887
4.8 0.004008451249 0.0003459719835 -0.0001321017068
4.81 0.004008376351 0.0003466887401 -0.0001321165196
4.82 0.004008301331 0.0003474054772 -0.0001321313271
4.83 0.004008226189 0.0003481221948 -0.0001321461294
4.84 0.004008150925 0.0003488388927 -0.0001321609264
4.85 0.004008075539 0.0003495555711 -0.0001321757181
4.86 0.004008000031 0.0003502722299 -0.0001321905046
4.87 0.004007924402 0.000350988869 -0.0001322052857
4.88 0.00400784865 0.0003517054885 -0.0001322200617
4.89 0.004007772777 0.0003524220883 -0.0001322348323
4.9 0.004007696782 0.0003531386684 -0.0001322495977
4.91 0.004007620664 0.0003538552289 -0.0001322643578
4.92 0.004007544425 0.0003545717696 -0.0001322791126
4.93 0.004007468065 0.0003552882906 -0.0001322938621
4.94 0.004007391582 0.0003560047919 -0.0001323086064
4.95 0.004007314978 0.0003567212733 -0.0001323233454
4.96 0.004007238251 0.000357437735 -0.0001323380791
4.97 0.004007161403 0.0003581541769 -0.0001323528076
4.98 0.004007084433 0.000358870599 -0.0001323675307
4.99 0.004007007342 0.0003595870012 -0.0001323822486
5 0.004006930128 0.0003603033836 -0.0001323969612
5.01 0.004006852793 0.0003610197461 -0.0001324116686
5.02 0.004006775336 0.0003617360887 -0.0001324263707
5.03 0.004006697757 0.0003624524115 -0.0001324410674
5.04 0.004006620056 0.0003631687142 -0.0001324557589
5.05 0.004006542234 0.0003638849971 -0.0001324704452
5.06 0.00400646429 0.00036460126 -0.0001324851261
5.07 0.004006386224 0.0003653175029 -0.0001324998018
5.08 0.004006308036 0.0003660337258 -0.0001325144722
5.09 0.004006229727 0.0003667499287 -0.0001325291373
5.1 0.004006151296 0.0003674661116 -0.0001325437972
5.11 0.004006072743 0.0003681822744 -0.0001325584517
5.12 0.004005994068 0.0003688984172 -0.000132573101
5.13 0.004005915272 0.0003696145399 -0.000132587745
5.14 0.004005836354 0.0003703306425 -0.0001326023837
5.15 0.004005757314 0.000371046725 -0.0001326170171
5.16 0.004005678152 0.0003717627873 -0.0001326316453
5.17 0.004005598869 0.0003724788295 -0.0001326462682
5.18 0.004005519464 0.0003731948515 -0.0001326608857
5.19 0.004005439938 0.0003739108534 -0.000132675498
5.2 0.004005360289 0.000374626835 -0.0001326901051
5.21 0.004005280519 0.0003753427964 -0.0001327047068
5.22 0.004005200628 0.0003760587376 -0.0001327193033
5.23 0.004005120615 0.0003767746586 -0.0001327338944
5.24 0.00400504048 0.0003774905592 -0.0001327484803
5.25 0.004004960223 0.0003782064396 -0.0001327630609
5.26 0.004004879845 0.0003789222997 -0.0001327776362
5.27 0.004004799345 0.0003796381394 -0.0001327922063
5.28 0.004004718723 0.0003803539588 -0.000132806771
5.29 0.00400463798 0.0003810697579 -0.0001328213305
5.3 0.004004557116 0.0003817855366 -0.0001328358847
5.31 0.004004476129 0.0003825012949 -0.0001328504336
5.32 0.004004395021 0.0003832170327 -0.0001328649772
5.33 0.004004313792 0.0003839327502 -0.0001328795155
5.34 0.00400423244 0.0003846484472 -0.0001328940485
5.35 0.004004150968 0.0003853641237 -0.0001329085762
5.36 0.004004069373 0.0003860797798 -0.0001329230987
5.37 0.004003987657 0.0003867954154 -0.0001329376159
5.38 0.00400390582 0.0003875110304 -0.0001329521277
5.39 0.004003823861 0.000388226625 -0.0001329666343
5.4 0.00400374178 0.0003889421989 -0.0001329811356
5.41 0.004003659578 0.0003896577524 -0.0001329956316
5.42 0.004003577254 0.0003903732852 -0.0001330101223
5.43 0.004003494808 0.0003910887974 -0.0001330246078
5.44 0.004003412242 0.000391804289 -0.0001330390879
5.45 0.004003329553 0.00039251976 -0.0001330535627
5.46 0.004003246743 0.0003932352103 -0.0001330680323
5.47 0.004003163812 0.00039395064 -0.0001330824965
5.48 0.004003080759 0.000394666049 -0.0001330969555
5.49 0.004002997584 0.0003953814373 -0.0001331114092
5.5 0.004002914288 0.0003960968048 -0.0001331258576
5.51 0.004002830871 0.0003968121516 -0.0001331403007
5.52 0.004002747332 0.0003975274777 -0.0001331547385
5.53 0.004002663671 0.000398242783 -0.000133169171
5.54 0.004002579889 0.0003989580675 -0.0001331835982
5.55 0.004002495986 0.0003996733312 -0.0001331980201
5.56 0.004002411961 0.000400388574 -0.0001332124367
5.57 0.004002327815 0.000401103796 -0.000133226848
5.58 0.004002243547 0.0004018189972 -0.0001332412541
5.59 0.004002159157 0.0004025341775 -0.0001332556548
5.6 0.004002074647 0.0004032493369 -0.0001332700503
5.61 0.004001990015 0.0004039644754 -0.0001332844404
5.62 0.004001905261 0.0004046795929 -0.0001332988252
5.63 0.004001820386 0.0004053946896 -0.0001333132048
5.64 0.004001735389 0.0004061097652 -0.000133327579
5.65 0.004001650272 0.0004068248199 -0.000133341948
5.66 0.004001565032 0.0004075398536 -0.0001333563117
5.67 0.004001479672 0.0004082548662 -0.00013337067
5.68 0.004001394189 0.0004089698579 -0.0001333850231
5.69 0.004001308586 0.0004096848284 -0.0001333993708
5.7 0.004001222861 0.000410399778 -0.0001334137133
5.71 0.004001137015 0.0004111147064 -0.0001334280505
5.72 0.004001051047 0.0004118296137 -0.0001334423823
5.73 0.004000964958 0.0004125445 -0.0001334567089
5.74 0.004000878748 0.000413259365 -0.0001334710302
5.75 0.004000792416 0.000413974209 -0.0001334853461
5.76 0.004000705963 0.0004146890317 -0.0001334996568
5.77 0.004000619389 0.0004154038333 -0.0001335139621
5.78 0.004000532693 0.0004161186137 -0.0001335282622
5.79 0.004000445876 0.0004168333728 -0.000133542557
5.8 0.004000358937 0.0004175481108 -0.0001335568464
5.81 0.004000271878 0.0004182628274 -0.0001335711306
5.82 0.004000184697 0.0004189775228 -0.0001335854094
5.83 0.004000097394 0.0004196921969 -0.000133599683
5.84 0.00400000997 0.0004204068497 -0.0001336139512
5.85 0.003999922426 0.0004211214812 -0.0001336282141
5.86 0.003999834759 0.0004218360913 -0.0001336424718
5.87 0.003999746972 0.0004225506801 -0.0001336567241
5.88 0.003999659063 0.0004232652475 -0.0001336709711
5.89 0.003999571033 0.0004239797935 -0.0001336852129
5.9 0.003999482881 0.0004246943181 -0.0001336994493
5.91 0.003999394609 0.0004254088212 -0.0001337136804
5.92 0.003999306215 0.0004261233029 -0.0001337279062
5.93 0.0039992177 0.0004268377632 -0.0001337421267
5.94 0.003999129063 0.000427552202 -0.0001337563419
5.95 0.003999040306 0.0004282666193 -0.0001337705517
5.96 0.003998951427 0.000428981015 -0.0001337847563
5.97 0.003998862427 0.0004296953893 -0.0001337989556
5.98 0.003998773305 0.000430409742 -0.0001338131496
5.99 0.003998684063 0.0004311240731 -0.0001338273382
6 0.003998594699 0.0004318383827 -0.0001338415215
6.01 0.003998505214 0.0004325526706 -0.0001338556996
6.02 0.003998415608 0.0004332669369 -0.0001338698723
6.03 0.003998325881 0.0004339811816 -0.0001338840397
6.04 0.003998236032 0.0004346954047 -0.0001338982018
6.05 0.003998146062 0.0004354096061 -0.0001339123586
6.06 0.003998055972 0.0004361237858 -0.0001339265101
6.07 0.00399796576 0.0004368379438 -0.0001339406563
6.08 0.003997875426 0.00043755208 -0.0001339547971
6.09 0.003997784972 0.0004382661946 -0.0001339689327
6.1 0.003997694396 0.0004389802874 -0.0001339830629
6.11 0.0039976037 0.0004396943584 -0.0001339971879
6.12 0.003997512882 0.0004404084076 -0.0001340113075
6.13 0.003997421943 0.000441122435 -0.0001340254218
6.14 0.003997330883 0.0004418364406 -0.0001340395308
6.15 0.003997239702 0.0004425504244 -0.0001340536344
6.16 0.0039971484 0.0004432643863 -0.0001340677328
6.17 0.003997056976 0.0004439783263 -0.0001340818258
6.18 0.003996965432 0.0004446922445 -0.0001340959136
6.19 0.003996873766 0.0004454061407 -0.000134109996
6.2 0.003996781979 0.000446120015 -0.0001341240731
6.21 0.003996690072 0.0004468338674 -0.0001341381449
6.22 0.003996598043 0.0004475476978 -0.0001341522114
6.23 0.003996505893 0.0004482615062 -0.0001341662725
6.24 0.003996413622 0.0004489752927 -0.0001341803284
6.25 0.00399632123 0.0004496890571 -0.0001341943789
6.26 0.003996228717 0.0004504027995 -0.0001342084241
6.27 0.003996136083 0.0004511165198 -0.000134222464
6.28 0.003996043327 0.0004518302181 -0.0001342364985
6.29 0.003995950451 0.0004525438943 -0.0001342505278
6.3 0.003995857454 0.0004532575485 -0.0001342645517
6.31 0.003995764336 0.0004539711805 -0.0001342785704
6.32 0.003995671096 0.0004546847903 -0.0001342925837
6.33 0.003995577736 0.0004553983781 -0.0001343065916
6.34 0.003995484255 0.0004561119436 -0.0001343205943
6.35 0.003995390653 0.000456825487 -0.0001343345916
6.36 0.003995296929 0.0004575390082 -0.0001343485837
6.37 0.003995203085 0.0004582525071 -0.0001343625704
6.38 0.00399510912 0.0004589659839 -0.0001343765517
6.39 0.003995015033 0.0004596794384 -0.0001343905278
6.4 0.003994920826 0.0004603928706 -0.0001344044985
6.41 0.003994826498 0.0004611062805 -0.000134418464
6.42 0.003994732049 0.0004618196681 -0.0001344324241
6.43 0.003994637479 0.0004625330334 -0.0001344463788
6.44 0.003994542788 0.0004632463764 -0.0001344603283
6.45 0.003994447976 0.000463959697 -0.0001344742724
6.46 0.003994353043 0.0004646729953 -0.0001344882112
6.47 0.003994257989 0.0004653862711 -0.0001345021447
6.48 0.003994162814 0.0004660995246 -0.0001345160729
6.49 0.003994067518 0.0004668127556 -0.0001345299957
6.5 0.003993972102 0.0004675259642 -0.0001345439132
6.51 0.003993876564 0.0004682391504 -0.0001345578254
6.52 0.003993780906 0.000468952314 -0.0001345717322
6.53 0.003993685127 0.0004696654552 -0.0001345856338
6.54 0.003993589227 0.0004703785739 -0.00013459953
6.55 0.003993493205 0.00047109167 -0.0001346134209
6.56 0.003993397064 0.0004718047436 -0.0001346273064
6.57 0.003993300801 0.0004725177947 -0.0001346411867
6.58 0.003993204417 0.0004732308232 -0.0001346550616
6.59 0.003993107913 0.000473943829 -0.0001346689311
6.6 0.003993011287 0.0004746568123 -0.0001346827954
6.61 0.003992914541 0.000475369773 -0.0001346966543
6.62 0.003992817674 0.000476082711 -0.0001347105079
6.63 0.003992720686 0.0004767956263 -0.0001347243562
6.64 0.003992623577 0.000477508519 -0.0001347381991
6.65 0.003992526348 0.0004782213889 -0.0001347520367
6.66 0.003992428997 0.0004789342362 -0.000134765869
6.67 0.003992331526 0.0004796470607 -0.000134779696
6.68 0.003992233934 0.0004803598625 -0.0001347935176
6.69 0.003992136221 0.0004810726415 -0.0001348073339
6.7 0.003992038388 0.0004817853978 -0.0001348211448
6.71 0.003991940434 0.0004824981312 -0.0001348349505
6.72 0.003991842359 0.0004832108418 -0.0001348487508
6.73 0.003991744163 0.0004839235296 -0.0001348625457
6.74 0.003991645846 0.0004846361946 -0.0001348763354
6.75 0.003991547409 0.0004853488367 -0.0001348901197
6.76 0.00399144885 0.0004860614559 -0.0001349038986
6.77 0.003991350171 0.0004867740522 -0.0001349176723
6.78 0.003991251372 0.0004874866256 -0.0001349314406
6.79 0.003991152451 0.000488199176 -0.0001349452035
6.8 0.00399105341 0.0004889117035 -0.0001349589612
6.81 0.003990954248 0.0004896242081 -0.0001349727135
6.82 0.003990854966 0.0004903366896 -0.0001349864605
6.83 0.003990755563 0.0004910491482 -0.0001350002021
6.84 0.003990656039 0.0004917615837 -0.0001350139384
6.85 0.003990556394 0.0004924739962 -0.0001350276694
6.86 0.003990456629 0.0004931863857 -0.000135041395
6.87 0.003990356743 0.000493898752 -0.0001350551153
6.88 0.003990256736 0.0004946110953 -0.0001350688302
6.89 0.003990156608 0.0004953234155 -0.0001350825399
6.9 0.00399005636 0.0004960357126 -0.0001350962441
6.91 0.003989955991 0.0004967479865 -0.0001351099431
6.92 0.003989855502 0.0004974602373 -0.0001351236367
6.93 0.003989754892 0.0004981724649 -0.000135137325
6.94 0.003989654161 0.0004988846693 -0.0001351510079
6.95 0.00398955331 0.0004995968505 -0.0001351646855
6.96 0.003989452338 0.0005003090085 -0.0001351783578
6.97 0.003989351245 0.0005010211432 -0.0001351920247
6.98 0.003989250032 0.0005017332547 -0.0001352056863
6.99 0.003989148698 0.0005024453429 -0.0001352193425
7 0.003989047244 0.0005031574078 -0.0001352329934
7.01 0.003988945669 0.0005038694494 -0.000135246639
7.02 0.003988843973 0.0005045814677 -0.0001352602792
7.03 0.003988742157 0.0005052934627 -0.0001352739141
7.04 0.00398864022 0.0005060054343 -0.0001352875436
7.05 0.003988538163 0.0005067173825 -0.0001353011678
7.06 0.003988435985 0.0005074293073 -0.0001353147867
7.07 0.003988333686 0.0005081412087 -0.0001353284002
7.08 0.003988231267 0.0005088530867 -0.0001353420084
7.09 0.003988128727 0.0005095649412 -0.0001353556112
7.1 0.003988026067 0.0005102767723 -0.0001353692087
7.11 0.003987923286 0.0005109885799 -0.0001353828009
7.12 0.003987820385 0.000511700364 -0.0001353963877
7.13 0.003987717363 0.0005124121246 -0.0001354099691
7.14 0.003987614221 0.0005131238617 -0.0001354235452
7.15 0.003987510958 0.0005138355752 -0.000135437116
7.16 0.003987407574 0.0005145472652 -0.0001354506814
7.17 0.00398730407 0.0005152589316 -0.0001354642415
7.18 0.003987200446 0.0005159705743 -0.0001354777963
7.19 0.003987096701 0.0005166821935 -0.0001354913457
7.2 0.003986992836 0.000517393789 -0.0001355048897
7.21 0.00398688885 0.0005181053609 -0.0001355184284
7.22 0.003986784744 0.0005188169092 -0.0001355319618
7.23 0.003986680517 0.0005195284337 -0.0001355454898
7.24 0.003986576169 0.0005202399346 -0.0001355590124
7.25 0.003986471702 0.0005209514117 -0.0001355725297
7.26 0.003986367114 0.0005216628651 -0.0001355860417
7.27 0.003986262405 0.0005223742947 -0.0001355995483
7.28 0.003986157576 0.0005230857006 -0.0001356130496
7.29 0.003986052626 0.0005237970827 -0.0001356265455
7.3 0.003985947556 0.000524508441 -0.0001356400361
7.31 0.003985842366 0.0005252197755 -0.0001356535213
7.32 0.003985737055 0.0005259310862 -0.0001356670012
7.33 0.003985631624 0.000526642373 -0.0001356804757
7.34 0.003985526072 0.0005273536359 -0.0001356939449
7.35 0.003985420401 0.0005280648749 -0.0001357074087
7.36 0.003985314608 0.0005287760901 -0.0001357208672
7.37 0.003985208695 0.0005294872813 -0.0001357343203
7.38 0.003985102662 0.0005301984486 -0.0001357477681
7.39 0.003984996509 0.0005309095919 -0.0001357612105
7.4 0.003984890235 0.0005316207113 -0.0001357746476
7.41 0.003984783841 0.0005323318067 -0.0001357880793
7.42 0.003984677326 0.0005330428781 -0.0001358015057
7.43 0.003984570691 0.0005337539254 -0.0001358149267
7.44 0.003984463936 0.0005344649487 -0.0001358283424
7.45 0.00398435706 0.000535175948 -0.0001358417527
7.46 0.003984250064 0.0005358869232 -0.0001358551576
7.47 0.003984142948 0.0005365978743 -0.0001358685572
7.48 0.003984035711 0.0005373088013 -0.0001358819515
7.49 0.003983928354 0.0005380197042 -0.0001358953404
7.5 0.003983820877 0.0005387305829 -0.0001359087239
7.51 0.00398371328 0.0005394414375 -0.0001359221021
7.52 0.003983605562 0.0005401522679 -0.0001359354749
7.53 0.003983497724 0.0005408630742 -0.0001359488424
7.54 0.003983389765 0.0005415738562 -0.0001359622045
7.55 0.003983281687 0.000542284614 -0.0001359755613
7.56 0.003983173488 0.0005429953475 -0.0001359889127
7.57 0.003983065168 0.0005437060568 -0.0001360022587
7.58 0.003982956729 0.0005444167418 -0.0001360155994
7.59 0.003982848169 0.0005451274026 -0.0001360289347
7.6 0.003982739489 0.000545838039 -0.0001360422647
7.61 0.003982630689 0.0005465486511 -0.0001360555893
7.62 0.003982521769 0.0005472592389 -0.0001360689086
7.63 0.003982412728 0.0005479698023 -0.0001360822225
7.64 0.003982303567 0.0005486803413 -0.000136095531
7.65 0.003982194286 0.0005493908559 -0.0001361088342
7.66 0.003982084885 0.0005501013461 -0.0001361221321
7.67 0.003981975363 0.0005508118119 -0.0001361354245
7.68 0.003981865722 0.0005515222533 -0.0001361487116
7.69 0.00398175596 0.0005522326702 -0.0001361619934
7.7 0.003981646078 0.0005529430626 -0.0001361752697
7.71 0.003981536075 0.0005536534305 -0.0001361885408
7.72 0.003981425953 0.0005543637739 -0.0001362018064
7.73 0.00398131571 0.0005550740928 -0.0001362150667
7.74 0.003981205347 0.0005557843872 -0.0001362283217
7.75 0.003981094865 0.000556494657 -0.0001362415712
7.76 0.003980984262 0.0005572049022 -0.0001362548155
7.77 0.003980873538 0.0005579151228 -0.0001362680543
7.78 0.003980762695 0.0005586253188 -0.0001362812878
7.79 0.003980651732 0.0005593354901 -0.0001362945159
7.8 0.003980540648 0.0005600456368 -0.0001363077387
7.81 0.003980429444 0.0005607557589 -0.0001363209561
7.82 0.00398031812 0.0005614658563 -0.0001363341681
7.83 0.003980206676 0.000562175929 -0.0001363473748
7.84 0.003980095112 0.0005628859769 -0.0001363605761
7.85 0.003979983428 0.0005635960002 -0.000136373772
7.86 0.003979871624 0.0005643059987 -0.0001363869626
7.87 0.0039797597 0.0005650159724 -0.0001364001478
7.88 0.003979647655 0.0005657259214 -0.0001364133277
7.89 0.003979535491 0.0005664358455 -0.0001364265021
7.9 0.003979423207 0.0005671457449 -0.0001364396713
7.91 0.003979310802 0.0005678556194 -0.000136452835
7.92 0.003979198277 0.000568565469 -0.0001364659934
7.93 0.003979085633 0.0005692752938 -0.0001364791464
7.94 0.003978972868 0.0005699850937 -0.000136492294
7.95 0.003978859983 0.0005706948687 -0.0001365054363
7.96 0.003978746979 0.0005714046188 -0.0001365185732
7.97 0.003978633854 0.000572114344 -0.0001365317047
7.98 0.003978520609 0.0005728240442 -0.0001365448309
7.99 0.003978407244 0.0005735337195 -0.0001365579517
8 0.003978293759 0.0005742433698 -0.0001365710671
8.01 0.003978180155 0.000574952995 -0.0001365841772
8.02 0.00397806643 0.0005756625953 -0.0001365972819
8.03 0.003977952585 0.0005763721705 -0.0001366103812
8.04 0.00397783862 0.0005770817207 -0.0001366234752
8.05 0.003977724536 0.0005777912458 -0.0001366365637
8.06 0.003977610331 0.0005785007458 -0.000136649647
8.07 0.003977496006 0.0005792102207 -0.0001366627248
8.08 0.003977381562 0.0005799196706 -0.0001366757973
8.09 0.003977266997 0.0005806290952 -0.0001366888644
8.1 0.003977152313 0.0005813384947 -0.0001367019261
8.11 0.003977037508 0.0005820478691 -0.0001367149824
8.12 0.003976922584 0.0005827572183 -0.0001367280334
8.13 0.00397680754 0.0005834665422 -0.000136741079
8.14 0.003976692376 0.000584175841 -0.0001367541192
8.15 0.003976577092 0.0005848851145 -0.0001367671541
8.16 0.003976461688 0.0005855943628 -0.0001367801836
8.17 0.003976346164 0.0005863035858 -0.0001367932077
8.18 0.00397623052 0.0005870127835 -0.0001368062264
8.19 0.003976114756 0.0005877219559 -0.0001368192398
8.2 0.003975998873 0.000588431103 -0.0001368322478
8.21 0.003975882869 0.0005891402247 -0.0001368452504
8.22 0.003975766746 0.0005898493211 -0.0001368582476
8.23 0.003975650503 0.0005905583922 -0.0001368712394
8.24 0.00397553414 0.0005912674378 -0.0001368842259
8.25 0.003975417657 0.0005919764581 -0.000136897207
8.26 0.003975301055 0.0005926854529 -0.0001369101828
8.27 0.003975184332 0.0005933944223 -0.0001369231531
8.28 0.00397506749 0.0005941033662 -0.0001369361181
8.29 0.003974950528 0.0005948122847 -0.0001369490777
8.3 0.003974833446 0.0005955211776 -0.0001369620319
8.31 0.003974716244 0.0005962300451 -0.0001369749807
8.32 0.003974598922 0.0005969388871 -0.0001369879242
8.33 0.003974481481 0.0005976477035 -0.0001370008623
8.34 0.00397436392 0.0005983564944 -0.000137013795
8.35 0.003974246239 0.0005990652596 -0.0001370267223
8.36 0.003974128438 0.0005997739994 -0.0001370396442
8.37 0.003974010517 0.0006004827135 -0.0001370525608
8.38 0.003973892477 0.0006011914019 -0.000137065472
8.39 0.003973774317 0.0006019000648 -0.0001370783778
8.4 0.003973656037 0.000602608702 -0.0001370912782
8.41 0.003973537638 0.0006033173135 -0.0001371041732
8.42 0.003973419118 0.0006040258993 -0.0001371170629
8.43 0.003973300479 0.0006047344594 -0.0001371299472
8.44 0.00397318172 0.0006054429938 -0.0001371428261
8.45 0.003973062842 0.0006061515025 -0.0001371556996
8.46 0.003972943844 0.0006068599854 -0.0001371685677
8.47 0.003972824726 0.0006075684425 -0.0001371814305
8.48 0.003972705488 0.0006082768739 -0.0001371942878
8.49 0.003972586131 0.0006089852794 -0.0001372071398
8.5 0.003972466654 0.0006096936592 -0.0001372199864
8.51 0.003972347057 0.000610402013 -0.0001372328276
8.52 0.003972227341 0.0006111103411 -0.0001372456634
8.53 0.003972107504 0.0006118186432 -0.0001372584939
8.54 0.003971987549 0.0006125269195 -0.0001372713189
8.55 0.003971867473 0.0006132351698 -0.0001372841386
8.56 0.003971747278 0.0006139433943 -0.0001372969529
8.57 0.003971626963 0.0006146515928 -0.0001373097618
8.58 0.003971506529 0.0006153597653 -0.0001373225653
8.59 0.003971385975 0.0006160679119 -0.0001373353635
8.6 0.003971265301 0.0006167760325 -0.0001373481562
8.61 0.003971144508 0.000617484127 -0.0001373609436
8.62 0.003971023595 0.0006181921956 -0.0001373737255
8.63 0.003970902563 0.0006189002381 -0.0001373865021
8.64 0.003970781411 0.0006196082546 -0.0001373992733
8.65 0.003970660139 0.0006203162449 -0.0001374120391
8.66 0.003970538748 0.0006210242092 -0.0001374247995
8.67 0.003970417237 0.0006217321474 -0.0001374375546
8.68 0.003970295606 0.0006224400595 -0.0001374503042
8.69 0.003970173856 0.0006231479454 -0.0001374630484
8.7 0.003970051987 0.0006238558052 -0.0001374757873
8.71 0.003969929997 0.0006245636387 -0.0001374885208
8.72 0.003969807889 0.0006252714461 -0.0001375012489
8.73 0.00396968566 0.0006259792273 -0.0001375139716
8.74 0.003969563312 0.0006266869823 -0.0001375266889
8.75 0.003969440845 0.000627394711 -0.0001375394008
8.76 0.003969318258 0.0006281024135 -0.0001375521073
8.77 0.003969195552 0.0006288100897 -0.0001375648084
8.78 0.003969072726 0.0006295177396 -0.0001375775042
8.79 0.00396894978 0.0006302253632 -0.0001375901945
8.8 0.003968826715 0.0006309329605 -0.0001376028795
8.81 0.003968703531 0.0006316405314 -0.000137615559
8.82 0.003968580227 0.000632348076 -0.0001376282332
8.83 0.003968456803 0.0006330555942 -0.000137640902
8.84 0.00396833326 0.000633763086 -0.0001376535653
8.85 0.003968209598 0.0006344705514 -0.0001376662233
8.86 0.003968085816 0.0006351779904 -0.0001376788759
8.87 0.003967961914 0.000635885403 -0.0001376915231
8.88 0.003967837893 0.000636592789 -0.0001377041649
8.89 0.003967713753 0.0006373001486 -0.0001377168013
8.9 0.003967589493 0.0006380074818 -0.0001377294324
8.91 0.003967465114 0.0006387147884 -0.000137742058
8.92 0.003967340616 0.0006394220685 -0.0001377546782
8.93 0.003967215998 0.000640129322 -0.000137767293
8.94 0.00396709126 0.000640836549 -0.0001377799025
8.95 0.003966966403 0.0006415437494 -0.0001377925065
8.96 0.003966841427 0.0006422509232 -0.0001378051051
8.97 0.003966716331 0.0006429580704 -0.0001378176984
8.98 0.003966591116 0.000643665191 -0.0001378302862
8.99 0.003966465781 0.000644372285 -0.0001378428687
9 0.003966340328 0.0006450793523 -0.0001378554457
9.01 0.003966214754 0.0006457863929 -0.0001378680174
9.02 0.003966089062 0.0006464934068 -0.0001378805836
9.03 0.00396596325 0.000647200394 -0.0001378931445
9.04 0.003965837318 0.0006479073545 -0.0001379056999
9.05 0.003965711268 0.0006486142883 -0.00013791825
9.06 0.003965585097 0.0006493211953 -0.0001379307947
9.07 0.003965458808 0.0006500280755 -0.0001379433339
9.08 0.003965332399 0.0006507349289 -0.0001379558678
9.09 0.003965205871 0.0006514417556 -0.0001379683962
9.1 0.003965079224 0.0006521485554 -0.0001379809193
9.11 0.003964952457 0.0006528553283 -0.0001379934369
9.12 0.003964825571 0.0006535620744 -0.0001380059492
9.13 0.003964698566 0.0006542687937 -0.0001380184561
9.14 0.003964571441 0.000654975486 -0.0001380309575
9.15 0.003964444197 0.0006556821514 -0.0001380434536
9.16 0.003964316834 0.0006563887899 -0.0001380559442
9.17 0.003964189351 0.0006570954015 -0.0001380684295
9.18 0.00396406175 0.0006578019861 -0.0001380809093
9.19 0.003963934029 0.0006585085437 -0.0001380933837
9.2 0.003963806188 0.0006592150744 -0.0001381058528
9.21 0.003963678229 0.000659921578 -0.0001381183164
9.22 0.00396355015 0.0006606280546 -0.0001381307746
9.23 0.003963421952 0.0006613345042 -0.0001381432275
9.24 0.003963293635 0.0006620409267 -0.0001381556749
9.25 0.003963165198 0.0006627473221 -0.0001381681169
9.26 0.003963036642 0.0006634536905 -0.0001381805535
9.27 0.003962907967 0.0006641600317 -0.0001381929847
9.28 0.003962779173 0.0006648663458 -0.0001382054105
9.29 0.00396265026 0.0006655726328 -0.0001382178309
9.3 0.003962521227 0.0006662788926 -0.0001382302459
9.31 0.003962392076 0.0006669851253 -0.0001382426555
9.32 0.003962262805 0.0006676913307 -0.0001382550596
9.33 0.003962133414 0.000668397509 -0.0001382674584
9.34 0.003962003905 0.00066910366 -0.0001382798518
9.35 0.003961874277 0.0006698097838 -0.0001382922397
9.36 0.003961744529 0.0006705158803 -0.0001383046223
9.37 0.003961614662 0.0006712219495 -0.0001383169994
9.38 0.003961484676 0.0006719279915 -0.0001383293711
9.39 0.003961354571 0.0006726340062 -0.0001383417375
9.4 0.003961224347 0.0006733399935 -0.0001383540984
9.41 0.003961094004 0.0006740459535 -0.0001383664539
9.42 0.003960963541 0.0006747518861 -0.000138378804
9.43 0.00396083296 0.0006754577914 -0.0001383911486
9.44 0.003960702259 0.0006761636693 -0.0001384034879
9.45 0.003960571439 0.0006768695197 -0.0001384158218
9.46 0.0039604405 0.0006775753428 -0.0001384281502
9.47 0.003960309442 0.0006782811384 -0.0001384404733
9.48 0.003960178265 0.0006789869065 -0.0001384527909
9.49 0.003960046969 0.0006796926472 -0.0001384651031
9.5 0.003959915554 0.0006803983604 -0.0001384774099
9.51 0.003959784019 0.0006811040461 -0.0001384897113
9.52 0.003959652366 0.0006818097042 -0.0001385020073
9.53 0.003959520594 0.0006825153348 -0.0001385142979
9.54 0.003959388702 0.0006832209379 -0.0001385265831
9.55 0.003959256692 0.0006839265134 -0.0001385388628
9.56 0.003959124562 0.0006846320613 -0.0001385511371
9.57 0.003958992313 0.0006853375816 -0.000138563406
9.58 0.003958859946 0.0006860430743 -0.0001385756696
9.59 0.003958727459 0.0006867485393 -0.0001385879276
9.6 0.003958594853 0.0006874539767 -0.0001386001803
9.61 0.003958462129 0.0006881593864 -0.0001386124276
9.62 0.003958329285 0.0006888647684 -0.0001386246694
9.63 0.003958196322 0.0006895701227 -0.0001386369059
9.64 0.003958063241 0.0006902754493 -0.0001386491369
9.65 0.00395793004 0.0006909807482 -0.0001386613625
9.66 0.003957796721 0.0006916860193 -0.0001386735827
9.67 0.003957663282 0.0006923912626 -0.0001386857974
9.68 0.003957529725 0.0006930964782 -0.0001386980068
9.69 0.003957396048 0.0006938016659 -0.0001387102107
9.7 0.003957262253 0.0006945068258 -0.0001387224093
9.71 0.003957128338 0.0006952119579 -0.0001387346024
9.72 0.003956994305 0.0006959170621 -0.00013874679
9.73 0.003956860153 0.0006966221385 -0.0001387589723
9.74 0.003956725882 0.000697327187 -0.0001387711492
9.75 0.003956591491 0.0006980322075 -0.0001387833206
9.76 0.003956456982 0.0006987372002 -0.0001387954866
9.77 0.003956322355 0.0006994421649 -0.0001388076472
9.78 0.003956187608 0.0007001471016 -0.0001388198024
9.79 0.003956052742 0.0007008520104 -0.0001388319521
9.8 0.003955917757 0.0007015568912 -0.0001388440965
9.81 0.003955782654 0.000702261744 -0.0001388562354
9.82 0.003955647432 0.0007029665688 -0.0001388683689
9.83 0.00395551209 0.0007036713655 -0.0001388804969
9.84 0.00395537663 0.0007043761342 -0.0001388926196
9.85 0.003955241051 0.0007050808748 -0.0001389047368
9.86 0.003955105354 0.0007057855874 -0.0001389168486
9.87 0.003954969537 0.0007064902718 -0.000138928955
9.88 0.003954833602 0.0007071949281 -0.000138941056
9.89 0.003954697547 0.0007078995563 -0.0001389531515
9.9 0.003954561374 0.0007086041563 -0.0001389652417
9.91 0.003954425082 0.0007093087282 -0.0001389773264
9.92 0.003954288672 0.0007100132718 -0.0001389894056
9.93 0.003954152142 0.0007107177873 -0.0001390014795
9.94 0.003954015494 0.0007114222746 -0.0001390135479
9.95 0.003953878727 0.0007121267336 -0.0001390256109
9.96 0.003953741841 0.0007128311643 -0.0001390376685
9.97 0.003953604836 0.0007135355668 -0.0001390497207
9.98 0.003953467712 0.0007142399411 -0.0001390617674
9.99 0.00395333047 0.000714944287 -0.0001390738087
10 0.003953193109 0.0007156486046 -0.0001390858446
10.01 0.003953055629 0.0007163528938 -0.0001390978751
10.02 0.003952918031 0.0007170571547 -0.0001391099001
10.03 0.003952780314 0.0007177613873 -0.0001391219197
10.04 0.003952642478 0.0007184655915 -0.0001391339339
10.05 0.003952504523 0.0007191697672 -0.0001391459426
10.06 0.003952366449 0.0007198739146 -0.000139157946
10.07 0.003952228257 0.0007205780335 -0.0001391699439
10.08 0.003952089946 0.0007212821239 -0.0001391819364
10.09 0.003951951517 0.0007219861859 -0.0001391939234
10.1 0.003951812969 0.0007226902195 -0.000139205905
10.11 0.003951674302 0.0007233942245 -0.0001392178812
10.12 0.003951535516 0.000724098201 -0.000139229852
10.13 0.003951396612 0.000724802149 -0.0001392418173
10.14 0.003951257589 0.0007255060684 -0.0001392537772
10.15 0.003951118447 0.0007262099592 -0.0001392657317
10.16 0.003950979187 0.0007269138215 -0.0001392776807
10.17 0.003950839808 0.0007276176552 -0.0001392896244
10.18 0.00395070031 0.0007283214603 -0.0001393015625
10.19 0.003950560694 0.0007290252367 -0.0001393134953
10.2 0.003950420959 0.0007297289845 -0.0001393254226
10.21 0.003950281105 0.0007304327036 -0.0001393373445
10.22 0.003950141133 0.0007311363941 -0.000139349261
10.23 0.003950001042 0.0007318400558 -0.000139361172
10.24 0.003949860833 0.0007325436888 -0.0001393730776
10.25 0.003949720505 0.0007332472932 -0.0001393849778
10.26 0.003949580058 0.0007339508687 -0.0001393968725
10.27 0.003949439493 0.0007346544155 -0.0001394087619
10.28 0.003949298809 0.0007353579335 -0.0001394206457
10.29 0.003949158007 0.0007360614227 -0.0001394325242
10.3 0.003949017086 0.0007367648832 -0.0001394443972
10.31 0.003948876046 0.0007374683147 -0.0001394562648
10.32 0.003948734888 0.0007381717175 -0.0001394681269
10.33 0.003948593612 0.0007388750914 -0.0001394799836
10.34 0.003948452216 0.0007395784363 -0.0001394918349
10.35 0.003948310703 0.0007402817525 -0.0001395036807
10.36 0.00394816907 0.0007409850396 -0.0001395155211
10.37 0.00394802732 0.0007416882979 -0.0001395273561
10.38 0.00394788545 0.0007423915272 -0.0001395391856
10.39 0.003947743462 0.0007430947276 -0.0001395510097
10.4 0.003947601356 0.000743797899 -0.0001395628284
10.41 0.003947459131 0.0007445010414 -0.0001395746416
10.42 0.003947316788 0.0007452041548 -0.0001395864494
10.43 0.003947174326 0.0007459072391 -0.0001395982518
10.44 0.003947031746 0.0007466102944 -0.0001396100487
10.45 0.003946889047 0.0007473133207 -0.0001396218402
10.46 0.00394674623 0.0007480163179 -0.0001396336262
10.47 0.003946603294 0.0007487192859 -0.0001396454068
10.48 0.00394646024 0.0007494222249 -0.000139657182
10.49 0.003946317067 0.0007501251348 -0.0001396689518
10.5 0.003946173776 0.0007508280155 -0.000139680716
10.51 0.003946030367 0.000751530867 -0.0001396924749
10.52 0.003945886839 0.0007522336894 -0.0001397042283
10.53 0.003945743192 0.0007529364826 -0.0001397159763
10.54 0.003945599427 0.0007536392466 -0.0001397277188
10.55 0.003945455544 0.0007543419814 -0.0001397394559
10.56 0.003945311543 0.0007550446869 -0.0001397511876
10.57 0.003945167423 0.0007557473632 -0.0001397629138
10.58 0.003945023184 0.0007564500101 -0.0001397746346
10.59 0.003944878827 0.0007571526278 -0.0001397863499
10.6 0.003944734352 0.0007578552162 -0.0001397980598
10.61 0.003944589758 0.0007585577753 -0.0001398097643
10.62 0.003944445046 0.0007592603051 -0.0001398214633
10.63 0.003944300216 0.0007599628054 -0.0001398331569
10.64 0.003944155267 0.0007606652765 -0.000139844845
10.65 0.0039440102 0.0007613677181 -0.0001398565277
10.66 0.003943865015 0.0007620701303 -0.000139868205
10.67 0.003943719711 0.0007627725131 -0.0001398798768
10.68 0.003943574289 0.0007634748665 -0.0001398915431
10.69 0.003943428749 0.0007641771904 -0.000139903204
10.7 0.00394328309 0.0007648794848 -0.0001399148595
10.71 0.003943137313 0.0007655817498 -0.0001399265095
10.72 0.003942991418 0.0007662839852 -0.0001399381541
10.73 0.003942845404 0.0007669861911 -0.0001399497933
10.74 0.003942699272 0.0007676883675 -0.000139961427
10.75 0.003942553022 0.0007683905144 -0.0001399730552
10.76 0.003942406653 0.0007690926317 -0.000139984678
10.77 0.003942260167 0.0007697947193 -0.0001399962954
10.78 0.003942113562 0.0007704967774 -0.0001400079073
10.79 0.003941966838 0.0007711988059 -0.0001400195138
10.8 0.003941819997 0.0007719008047 -0.0001400311148
10.81 0.003941673037 0.0007726027739 -0.0001400427104
10.82 0.003941525959 0.0007733047135 -0.0001400543005
10.83 0.003941378763 0.0007740066233 -0.0001400658852
10.84 0.003941231448 0.0007747085034 -0.0001400774645
10.85 0.003941084015 0.0007754103539 -0.0001400890383
10.86 0.003940936464 0.0007761121746 -0.0001401006066
10.87 0.003940788795 0.0007768139655 -0.0001401121695
10.88 0.003940641008 0.0007775157267 -0.000140123727
10.89 0.003940493102 0.0007782174581 -0.000140135279
10.9 0.003940345078 0.0007789191597 -0.0001401468255
10.91 0.003940196936 0.0007796208315 -0.0001401583666
10.92 0.003940048676 0.0007803224734 -0.0001401699023
10.93 0.003939900298 0.0007810240855 -0.0001401814325
10.94 0.003939751801 0.0007817256678 -0.0001401929572
10.95 0.003939603186 0.0007824272201 -0.0001402044765
10.96 0.003939454454 0.0007831287426 -0.0001402159904
10.97 0.003939305603 0.0007838302351 -0.0001402274988
10.98 0.003939156633 0.0007845316978 -0.0001402390017
10.99 0.003939007546 0.0007852331305 -0.0001402504993
11 0.003938858341 0.0007859345332 -0.0001402619913
11.01 0.003938709017 0.0007866359059 -0.0001402734779
11.02 0.003938559576 0.0007873372487 -0.0001402849591
11.03 0.003938410016 0.0007880385614 -0.0001402964348
11.04 0.003938260338 0.0007887398441 -0.000140307905
11.05 0.003938110542 0.0007894410968 -0.0001403193698
11.06 0.003937960628 0.0007901423194 -0.0001403308291
11.07 0.003937810596 0.0007908435119 -0.000140342283
11.08 0.003937660446 0.0007915446743 -0.0001403537315
11.09 0.003937510177 0.0007922458067 -0.0001403651744
11.1 0.003937359791 0.0007929469089 -0.000140376612
11.11 0.003937209287 0.0007936479809 -0.000140388044
11.12 0.003937058664 0.0007943490228 -0.0001403994707
11.13 0.003936907924 0.0007950500346 -0.0001404108918
11.14 0.003936757065 0.0007957510161 -0.0001404223075
11.15 0.003936606088 0.0007964519675 -0.0001404337178
11.16 0.003936454994 0.0007971528886 -0.0001404451226
11.17 0.003936303781 0.0007978537794 -0.0001404565219
11.18 0.00393615245 0.00079855464 -0.0001404679158
11.19 0.003936001002 0.0007992554704 -0.0001404793043
11.2 0.003935849435 0.0007999562704 -0.0001404906872
11.21 0.00393569775 0.0008006570402 -0.0001405020648
11.22 0.003935545948 0.0008013577796 -0.0001405134368
11.23 0.003935394027 0.0008020584887 -0.0001405248034
11.24 0.003935241988 0.0008027591674 -0.0001405361646
11.25 0.003935089832 0.0008034598158 -0.0001405475203
11.26 0.003934937557 0.0008041604338 -0.0001405588705
11.27 0.003934785165 0.0008048610213 -0.0001405702153
11.28 0.003934632654 0.0008055615785 -0.0001405815546
11.29 0.003934480026 0.0008062621052 -0.0001405928884
11.3 0.003934327279 0.0008069626015 -0.0001406042169
11.31 0.003934174415 0.0008076630673 -0.0001406155398
11.32 0.003934021433 0.0008083635026 -0.0001406268573
11.33 0.003933868333 0.0008090639074 -0.0001406381693
11.34 0.003933715115 0.0008097642817 -0.0001406494759
11.35 0.003933561779 0.0008104646255 -0.000140660777
11.36 0.003933408325 0.0008111649387 -0.0001406720726
11.37 0.003933254753 0.0008118652213 -0.0001406833628
11.38 0.003933101063 0.0008125654734 -0.0001406946475
11.39 0.003932947256 0.0008132656948 -0.0001407059268
11.4 0.00393279333 0.0008139658857 -0.0001407172006
11.41 0.003932639287 0.0008146660459 -0.0001407284689
11.42 0.003932485126 0.0008153661755 -0.0001407397318
11.43 0.003932330847 0.0008160662744 -0.0001407509892
11.44 0.00393217645 0.0008167663426 -0.0001407622412
11.45 0.003932021935 0.0008174663801 -0.0001407734876
11.46 0.003931867302 0.0008181663869 -0.0001407847287
11.47 0.003931712552 0.000818866363 -0.0001407959642
11.48 0.003931557684 0.0008195663083 -0.0001408071943
11.49 0.003931402698 0.0008202662229 -0.000140818419
11.5 0.003931247594 0.0008209661067 -0.0001408296381
11.51 0.003931092372 0.0008216659597 -0.0001408408519
11.52 0.003930937033 0.0008223657819 -0.0001408520601
11.53 0.003930781576 0.0008230655733 -0.0001408632629
11.54 0.003930626001 0.0008237653338 -0.0001408744602
11.55 0.003930470308 0.0008244650634 -0.000140885652
11.56 0.003930314497 0.0008251647622 -0.0001408968384
11.57 0.003930158569 0.0008258644301 -0.0001409080194
11.58 0.003930002523 0.0008265640671 -0.0001409191948
11.59 0.003929846359 0.0008272636731 -0.0001409303648
11.6 0.003929690077 0.0008279632483 -0.0001409415293
11.61 0.003929533678 0.0008286627924 -0.0001409526884
11.62 0.003929377161 0.0008293623056 -0.000140963842
11.63 0.003929220526 0.0008300617878 -0.0001409749901
11.64 0.003929063773 0.000830761239 -0.0001409861327
11.65 0.003928906903 0.0008314606591 -0.0001409972699
11.66 0.003928749915 0.0008321600483 -0.0001410084016
11.67 0.003928592809 0.0008328594063 -0.0001410195279
11.68 0.003928435586 0.0008335587333 -0.0001410306487
11.69 0.003928278245 0.0008342580292 -0.000141041764
11.7 0.003928120786 0.000834957294 -0.0001410528738
11.71 0.003927963209 0.0008356565277 -0.0001410639782
11.72 0.003927805515 0.0008363557303 -0.0001410750771
11.73 0.003927647704 0.0008370549017 -0.0001410861706
11.74 0.003927489774 0.0008377540419 -0.0001410972585
11.75 0.003927331727 0.0008384531509 -0.000141108341
11.76 0.003927173562 0.0008391522288 -0.0001411194181
11.77 0.00392701528 0.0008398512754 -0.0001411304896
11.78 0.00392685688 0.0008405502908 -0.0001411415557
11.79 0.003926698362 0.0008412492749 -0.0001411526163
11.8 0.003926539727 0.0008419482278 -0.0001411636715
11.81 0.003926380974 0.0008426471494 -0.0001411747211
11.82 0.003926222103 0.0008433460396 -0.0001411857653
11.83 0.003926063115 0.0008440448986 -0.0001411968041
11.84 0.00392590401 0.0008447437262 -0.0001412078373
11.85 0.003925744786 0.0008454425225 -0.0001412188651
11.86 0.003925585446 0.0008461412875 -0.0001412298874
11.87 0.003925425987 0.000846840021 -0.0001412409043
11.88 0.003925266411 0.0008475387231 -0.0001412519156
11.89 0.003925106717 0.0008482373939 -0.0001412629215
11.9 0.003924946906 0.0008489360332 -0.000141273922
11.91 0.003924786978 0.000849634641 -0.0001412849169
11.92 0.003924626931 0.0008503332174 -0.0001412959064
11.93 0.003924466768 0.0008510317624 -0.0001413068904
11.94 0.003924306486 0.0008517302758 -0.0001413178689
11.95 0.003924146087 0.0008524287577 -0.0001413288419
11.96 0.003923985571 0.0008531272081 -0.0001413398095
11.97 0.003923824937 0.0008538256269 -0.0001413507716
11.98 0.003923664186 0.0008545240142 -0.0001413617282
11.99 0.003923503317 0.0008552223699 -0.0001413726794
12 0.003923342331 0.000855920694 -0.0001413836251
12.01 0.003923181227 0.0008566189865 -0.0001413945652
12.02 0.003923020005 0.0008573172474 -0.0001414055
12.03 0.003922858667 0.0008580154766 -0.0001414164292
12.04 0.00392269721 0.0008587136742 -0.000141427353
12.05 0.003922535637 0.0008594118401 -0.0001414382713
12.06 0.003922373945 0.0008601099744 -0.0001414491841
12.07 0.003922212137 0.0008608080769 -0.0001414600914
12.08 0.003922050211 0.0008615061477 -0.0001414709932
12.09 0.003921888167 0.0008622041867 -0.0001414818896
12.1 0.003921726006 0.000862902194 -0.0001414927805
12.11 0.003921563728 0.0008636001696 -0.0001415036659
12.12 0.003921401332 0.0008642981133 -0.0001415145459
12.13 0.003921238819 0.0008649960253 -0.0001415254203
12.14 0.003921076188 0.0008656939054 -0.0001415362893
12.15 0.00392091344 0.0008663917537 -0.0001415471528
12.16 0.003920750575 0.0008670895701 -0.0001415580108
12.17 0.003920587592 0.0008677873547 -0.0001415688634
12.18 0.003920424492 0.0008684851074 -0.0001415797104
12.19 0.003920261274 0.0008691828281 -0.000141590552
12.2 0.003920097939 0.000869880517 -0.0001416013881
12.21 0.003919934487 0.000870578174 -0.0001416122187
12.22 0.003919770918 0.0008712757989 -0.0001416230439
12.23 0.003919607231 0.000871973392 -0.0001416338635
12.24 0.003919443426 0.000872670953 -0.0001416446777
12.25 0.003919279505 0.000873368482 -0.0001416554864
12.26 0.003919115466 0.0008740659791 -0.0001416662896
12.27 0.00391895131 0.0008747634441 -0.0001416770873
12.28 0.003918787036 0.000875460877 -0.0001416878796
12.29 0.003918622645 0.0008761582779 -0.0001416986663
12.3 0.003918458137 0.0008768556467 -0.0001417094476
12.31 0.003918293511 0.0008775529835 -0.0001417202234
12.32 0.003918128769 0.0008782502881 -0.0001417309937
12.33 0.003917963909 0.0008789475605 -0.0001417417585
12.34 0.003917798931 0.0008796448009 -0.0001417525178
12.35 0.003917633837 0.0008803420091 -0.0001417632717
12.36 0.003917468625 0.0008810391851 -0.0001417740201
12.37 0.003917303296 0.0008817363289 -0.000141784763
12.38 0.003917137849 0.0008824334405 -0.0001417955004
12.39 0.003916972286 0.0008831305199 -0.0001418062323
12.4 0.003916806605 0.000883827567 -0.0001418169587
12.41 0.003916640807 0.0008845245819 -0.0001418276796
12.42 0.003916474892 0.0008852215645 -0.0001418383951
12.43 0.003916308859 0.0008859185148 -0.0001418491051
12.44 0.003916142709 0.0008866154328 -0.0001418598096
12.45 0.003915976442 0.0008873123185 -0.0001418705086
12.46 0.003915810058 0.0008880091719 -0.0001418812021
12.47 0.003915643557 0.0008887059929 -0.0001418918901
12.48 0.003915476938 0.0008894027815 -0.0001419025726
12.49 0.003915310203 0.0008900995378 -0.0001419132497
12.5 0.00391514335 0.0008907962616 -0.0001419239212
12.51 0.00391497638 0.000891492953 -0.0001419345873
12.52 0.003914809293 0.000892189612 -0.0001419452479
12.53 0.003914642088 0.0008928862386 -0.000141955903
12.54 0.003914474767 0.0008935828327 -0.0001419665526
12.55 0.003914307328 0.0008942793942 -0.0001419771967
12.56 0.003914139772 0.0008949759233 -0.0001419878353
12.57 0.0039139721 0.0008956724199 -0.0001419984684
12.58 0.00391380431 0.000896368884 -0.0001420090961
12.59 0.003913636402 0.0008970653155 -0.0001420197182
12.6 0.003913468378 0.0008977617144 -0.0001420303349
12.61 0.003913300237 0.0008984580808 -0.0001420409461
12.62 0.003913131979 0.0008991544145 -0.0001420515518
12.63 0.003912963603 0.0008998507157 -0.0001420621519
12.64 0.00391279511 0.0009005469842 -0.0001420727466
12.65 0.003912626501 0.0009012432201 -0.0001420833359
12.66 0.003912457774 0.0009019394233 -0.0001420939196
12.67 0.00391228893 0.0009026355938 -0.0001421044978
12.68 0.003912119969 0.0009033317317 -0.0001421150705
12.69 0.003911950891 0.0009040278368 -0.0001421256378
12.7 0.003911781697 0.0009047239092 -0.0001421361995
12.71 0.003911612385 0.0009054199489 -0.0001421467558
12.72 0.003911442956 0.0009061159558 -0.0001421573065
12.73 0.003911273409 0.0009068119299 -0.0001421678518
12.74 0.003911103746 0.0009075078713 -0.0001421783916
12.75 0.003910933966 0.0009082037798 -0.0001421889258
12.76 0.003910764069 0.0009088996555 -0.0001421994546
12.77 0.003910594055 0.0009095954984 -0.0001422099779
12.78 0.003910423924 0.0009102913085 -0.0001422204957
12.79 0.003910253676 0.0009109870856 -0.000142231008
12.8 0.003910083311 0.0009116828299 -0.0001422415148
12.81 0.003909912829 0.0009123785413 -0.0001422520161
12.82 0.00390974223 0.0009130742197 -0.0001422625119
12.83 0.003909571514 0.0009137698652 -0.0001422730022
12.84 0.003909400681 0.0009144654778 -0.0001422834871
12.85 0.003909229732 0.0009151610574 -0.0001422939664
12.86 0.003909058665 0.000915856604 -0.0001423044402
12.87 0.003908887481 0.0009165521176 -0.0001423149085
12.88 0.00390871618 0.0009172475982 -0.0001423253714
12.89 0.003908544763 0.0009179430458 -0.0001423358287
12.9 0.003908373228 0.0009186384603 -0.0001423462806
12.91 0.003908201577 0.0009193338417 -0.0001423567269
12.92 0.003908029809 0.0009200291901 -0.0001423671677
12.93 0.003907857924 0.0009207245054 -0.0001423776031
12.94 0.003907685922 0.0009214197876 -0.0001423880329
12.95 0.003907513803 0.0009221150366 -0.0001423984573
12.96 0.003907341567 0.0009228102525 -0.0001424088761
12.97 0.003907169214 0.0009235054352 -0.0001424192895
12.98 0.003906996745 0.0009242005848 -0.0001424296973
12.99 0.003906824158 0.0009248957012 -0.0001424400997
13 0.003906651455 0.0009255907843 -0.0001424504965
13.01 0.003906478635 0.0009262858342 -0.0001424608879
13.02 0.003906305698 0.0009269808509 -0.0001424712737
13.03 0.003906132644 0.0009276758344 -0.0001424816541
13.04 0.003905959474 0.0009283707845 -0.0001424920289
13.05 0.003905786186 0.0009290657014 -0.0001425023983
13.06 0.003905612782 0.0009297605849 -0.0001425127621
13.07 0.003905439261 0.0009304554352 -0.0001425231205
13.08 0.003905265623 0.0009311502521 -0.0001425334733
13.09 0.003905091869 0.0009318450356 -0.0001425438206
13.1 0.003904917997 0.0009325397858 -0.0001425541625
13.11 0.003904744009 0.0009332345026 -0.0001425644988
13.12 0.003904569904 0.000933929186 -0.0001425748297
13.13 0.003904395683 0.000934623836 -0.000142585155
13.14 0.003904221344 0.0009353184525 -0.0001425954748
13.15 0.003904046889 0.0009360130356 -0.0001426057891
13.16 0.003903872317 0.0009367075852 -0.000142616098
13.17 0.003903697628 0.0009374021014 -0.0001426264013
13.18 0.003903522823 0.000938096584 -0.0001426366991
13.19 0.003903347901 0.0009387910331 -0.0001426469914
13.2 0.003903172862 0.0009394854487 -0.0001426572782
13.21 0.003902997706 0.0009401798308 -0.0001426675595
13.22 0.003902822434 0.0009408741792 -0.0001426778353
13.23 0.003902647045 0.0009415684942 -0.0001426881056
13.24 0.003902471539 0.0009422627755 -0.0001426983704
13.25 0.003902295917 0.0009429570232 -0.0001427086296
13.26 0.003902120178 0.0009436512372 -0.0001427188834
13.27 0.003901944322 0.0009443454177 -0.0001427291317
13.28 0.00390176835 0.0009450395644 -0.0001427393744
13.29 0.003901592261 0.0009457336775 -0.0001427496117
13.3 0.003901416055 0.0009464277569 -0.0001427598434
13.31 0.003901239733 0.0009471218026 -0.0001427700697
13.32 0.003901063294 0.0009478158146 -0.0001427802904
13.33 0.003900886738 0.0009485097928 -0.0001427905056
13.34 0.003900710066 0.0009492037373 -0.0001428007153
13.35 0.003900533277 0.000949897648 -0.0001428109195
13.36 0.003900356371 0.0009505915249 -0.0001428211182
13.37 0.003900179349 0.000951285368 -0.0001428313114
13.38 0.003900002211 0.0009519791773 -0.0001428414991
13.39 0.003899824955 0.0009526729528 -0.0001428516813
13.4 0.003899647583 0.0009533666944 -0.000142861858
13.41 0.003899470095 0.0009540604021 -0.0001428720291
13.42 0.00389929249 0.000954754076 -0.0001428821948
13.43 0.003899114768 0.0009554477159 -0.0001428923549
13.44 0.00389893693 0.0009561413219 -0.0001429025095
13.45 0.003898758975 0.000956834894 -0.0001429126586
13.46 0.003898580904 0.0009575284322 -0.0001429228022
13.47 0.003898402716 0.0009582219364 -0.0001429329403
13.48 0.003898224412 0.0009589154066 -0.0001429430729
13.49 0.003898045991 0.0009596088428 -0.0001429532
13.5 0.003897867453 0.000960302245 -0.0001429633216
13.51 0.0038976888 0.0009609956132 -0.0001429734376
13.52 0.003897510029 0.0009616889473 -0.0001429835481
13.53 0.003897331142 0.0009623822474 -0.0001429936532
13.54 0.003897152139 0.0009630755133 -0.0001430037527
13.55 0.003896973019 0.0009637687452 -0.0001430138467
13.56 0.003896793782 0.000964461943 -0.0001430239352
13.57 0.003896614429 0.0009651551067 -0.0001430340181
13.58 0.00389643496 0.0009658482362 -0.0001430440956
13.59 0.003896255374 0.0009665413316 -0.0001430541675
13.6 0.003896075672 0.0009672343927 -0.000143064234
13.61 0.003895895853 0.0009679274197 -0.0001430742949
13.62 0.003895715918 0.0009686204125 -0.0001430843503
13.63 0.003895535866 0.0009693133711 -0.0001430944002
13.64 0.003895355698 0.0009700062954 -0.0001431044446
13.65 0.003895175413 0.0009706991855 -0.0001431144834
13.66 0.003894995012 0.0009713920413 -0.0001431245168
13.67 0.003894814495 0.0009720848629 -0.0001431345446
13.68 0.003894633861 0.0009727776501 -0.0001431445669
13.69 0.003894453111 0.000973470403 -0.0001431545837
13.7 0.003894272245 0.0009741631216 -0.000143164595
13.71 0.003894091262 0.0009748558058 -0.0001431746008
13.72 0.003893910162 0.0009755484557 -0.000143184601
13.73 0.003893728947 0.0009762410711 -0.0001431945958
13.74 0.003893547614 0.0009769336522 -0.000143204585
13.75 0.003893366166 0.0009776261989 -0.0001432145687
13.76 0.003893184601 0.0009783187111 -0.0001432245469
13.77 0.00389300292 0.0009790111889 -0.0001432345195
13.78 0.003892821123 0.0009797036323 -0.0001432444867
13.79 0.003892639209 0.0009803960411 -0.0001432544483
13.8 0.003892457179 0.0009810884155 -0.0001432644044
13.81 0.003892275032 0.0009817807553 -0.000143274355
13.82 0.003892092769 0.0009824730607 -0.0001432843001
13.83 0.00389191039 0.0009831653314 -0.0001432942397
13.84 0.003891727895 0.0009838575677 -0.0001433041737
13.85 0.003891545283 0.0009845497693 -0.0001433141022
13.86 0.003891362555 0.0009852419364 -0.0001433240252
13.87 0.003891179711 0.0009859340688 -0.0001433339427
13.88 0.00389099675 0.0009866261667 -0.0001433438547
13.89 0.003890813673 0.0009873182299 -0.0001433537611
13.9 0.00389063048 0.0009880102584 -0.000143363662
13.91 0.003890447171 0.0009887022523 -0.0001433735574
13.92 0.003890263745 0.0009893942115 -0.0001433834473
13.93 0.003890080204 0.000990086136 -0.0001433933317
13.94 0.003889896545 0.0009907780257 -0.0001434032105
13.95 0.003889712771 0.0009914698808 -0.0001434130838
13.96 0.003889528881 0.0009921617011 -0.0001434229516
13.97 0.003889344874 0.0009928534866 -0.0001434328139
13.98 0.003889160751 0.0009935452373 -0.0001434426706
13.99 0.003888976512 0.0009942369533 -0.0001434525218
14 0.003888792156 0.0009949286344 -0.0001434623675
14.01 0.003888607685 0.0009956202807 -0.0001434722077
14.02 0.003888423097 0.0009963118922 -0.0001434820424
14.03 0.003888238393 0.0009970034688 -0.0001434918715
14.04 0.003888053573 0.0009976950105 -0.0001435016951
14.05 0.003887868637 0.0009983865173 -0.0001435115132
14.06 0.003887683584 0.0009990779892 -0.0001435213258
14.07 0.003887498416 0.0009997694262 -0.0001435311328
14.08 0.003887313131 0.001000460828 -0.0001435409343
14.09 0.00388712773 0.001001152195 -0.0001435507303
14.1 0.003886942213 0.001001843527 -0.0001435605208
14.11 0.00388675658 0.001002534825 -0.0001435703057
14.12 0.003886570831 0.001003226087 -0.0001435800851
14.13 0.003886384965 0.001003917314 -0.000143589859
14.14 0.003886198984 0.001004608506 -0.0001435996274
14.15 0.003886012886 0.001005299663 -0.0001436093902
14.16 0.003885826673 0.001005990785 -0.0001436191475
14.17 0.003885640343 0.001006681872 -0.0001436288993
14.18 0.003885453897 0.001007372923 -0.0001436386456
14.19 0.003885267335 0.00100806394 -0.0001436483863
14.2 0.003885080657 0.001008754922 -0.0001436581215
14.21 0.003884893863 0.001009445868 -0.0001436678512
14.22 0.003884706953 0.001010136779 -0.0001436775753
14.23 0.003884519927 0.001010827655 -0.0001436872939
14.24 0.003884332785 0.001011518496 -0.000143697007
14.25 0.003884145527 0.001012209302 -0.0001437067146
14.26 0.003883958152 0.001012900072 -0.0001437164166
14.27 0.003883770662 0.001013590807 -0.0001437261131
14.28 0.003883583056 0.001014281507 -0.0001437358041
14.29 0.003883395333 0.001014972172 -0.0001437454896
14.3 0.003883207495 0.001015662801 -0.0001437551695
14.31 0.003883019541 0.001016353395 -0.0001437648439
14.32 0.003882831471 0.001017043953 -0.0001437745127
14.33 0.003882643284 0.001017734477 -0.0001437841761
14.34 0.003882454982 0.001018424965 -0.0001437938339
14.35 0.003882266564 0.001019115417 -0.0001438034861
14.36 0.00388207803 0.001019805835 -0.0001438131329
14.37 0.00388188938 0.001020496216 -0.0001438227741
14.38 0.003881700613 0.001021186563 -0.0001438324098
14.39 0.003881511731 0.001021876874 -0.0001438420399
14.4 0.003881322733 0.001022567149 -0.0001438516645
14.41 0.00388113362 0.001023257389 -0.0001438612836
14.42 0.00388094439 0.001023947594 -0.0001438708972
14.43 0.003880755044 0.001024637763 -0.0001438805052
14.44 0.003880565582 0.001025327896 -0.0001438901077
14.45 0.003880376005 0.001026017994 -0.0001438997046
14.46 0.003880186311 0.001026708057 -0.000143909296
14.47 0.003879996502 0.001027398084 -0.0001439188819
14.48 0.003879806577 0.001028088075 -0.0001439284623
14.49 0.003879616536 0.001028778031 -0.0001439380371
14.5 0.003879426379 0.001029467951 -0.0001439476064
14.51 0.003879236106 0.001030157835 -0.0001439571702
14.52 0.003879045717 0.001030847684 -0.0001439667284
14.53 0.003878855213 0.001031537497 -0.0001439762811
14.54 0.003878664592 0.001032227275 -0.0001439858282
14.55 0.003878473856 0.001032917017 -0.0001439953698
14.56 0.003878283004 0.001033606723 -0.0001440049059
14.57 0.003878092036 0.001034296393 -0.0001440144365
14.58 0.003877900952 0.001034986028 -0.0001440239615
14.59 0.003877709753 0.001035675627 -0.000144033481
14.6 0.003877518438 0.00103636519 -0.0001440429949
14.61 0.003877327007 0.001037054717 -0.0001440525033
14.62 0.00387713546 0.001037744209 -0.0001440620062
14.63 0.003876943797 0.001038433664 -0.0001440715035
14.64 0.003876752018 0.001039123084 -0.0001440809953
14.65 0.003876560124 0.001039812468 -0.0001440904816
14.66 0.003876368114 0.001040501816 -0.0001440999623
14.67 0.003876175988 0.001041191129 -0.0001441094375
14.68 0.003875983747 0.001041880405 -0.0001441189071
14.69 0.00387579139 0.001042569645 -0.0001441283712
14.7 0.003875598917 0.00104325885 -0.0001441378298
14.71 0.003875406328 0.001043948018 -0.0001441472828
14.72 0.003875213623 0.001044637151 -0.0001441567303
14.73 0.003875020803 0.001045326248 -0.0001441661723
14.74 0.003874827867 0.001046015308 -0.0001441756087
14.75 0.003874634816 0.001046704333 -0.0001441850396
14.76 0.003874441648 0.001047393322 -0.0001441944649
14.77 0.003874248365 0.001048082274 -0.0001442038847
14.78 0.003874054967 0.001048771191 -0.000144213299
14.79 0.003873861452 0.001049460071 -0.0001442227077
14.8 0.003873667822 0.001050148916 -0.0001442321109
14.81 0.003873474077 0.001050837724 -0.0001442415085
14.82 0.003873280215 0.001051526496 -0.0001442509006
14.83 0.003873086238 0.001052215232 -0.0001442602872
14.84 0.003872892145 0.001052903932 -0.0001442696682
14.85 0.003872697937 0.001053592596 -0.0001442790437
14.86 0.003872503613 0.001054281223 -0.0001442884136
14.87 0.003872309174 0.001054969814 -0.000144297778
14.88 0.003872114618 0.001055658369 -0.0001443071368
14.89 0.003871919948 0.001056346888 -0.0001443164902
14.9 0.003871725161 0.001057035371 -0.0001443258379
14.91 0.003871530259 0.001057723817 -0.0001443351801
14.92 0.003871335241 0.001058412227 -0.0001443445168
14.93 0.003871140108 0.001059100601 -0.000144353848
14.94 0.003870944859 0.001059788938 -0.0001443631736
14.95 0.003870749495 0.00106047724 -0.0001443724936
14.96 0.003870554015 0.001061165504 -0.0001443818081
14.97 0.00387035842 0.001061853733 -0.0001443911171
14.98 0.003870162709 0.001062541925 -0.0001444004205
14.99 0.003869966882 0.00106323008 -0.0001444097184
15 0.00386977094 0.0010639182 -0.0001444190107
15.01 0.003869574882 0.001064606283 -0.0001444282975
15.02 0.003869378709 0.001065294329 -0.0001444375788
15.03 0.00386918242 0.001065982339 -0.0001444468545
15.04 0.003868986016 0.001066670312 -0.0001444561246
15.05 0.003868789496 0.001067358249 -0.0001444653892
15.06 0.003868592861 0.00106804615 -0.0001444746483
15.07 0.00386839611 0.001068734014 -0.0001444839018
15.08 0.003868199244 0.001069421841 -0.0001444931498
15.09 0.003868002262 0.001070109632 -0.0001445023922
15.1 0.003867805165 0.001070797386 -0.0001445116291
15.11 0.003867607952 0.001071485104 -0.0001445208604
15.12 0.003867410624 0.001072172785 -0.0001445300862
15.13 0.003867213181 0.00107286043 -0.0001445393064
15.14 0.003867015622 0.001073548038 -0.0001445485211
15.15 0.003866817947 0.001074235609 -0.0001445577303
15.16 0.003866620157 0.001074923144 -0.0001445669339
15.17 0.003866422252 0.001075610641 -0.0001445761319
15.18 0.003866224231 0.001076298103 -0.0001445853244
15.19 0.003866026095 0.001076985527 -0.0001445945114
15.2 0.003865827843 0.001077672915 -0.0001446036928
15.21 0.003865629476 0.001078360266 -0.0001446128686
15.22 0.003865430994 0.00107904758 -0.0001446220389
15.23 0.003865232396 0.001079734858 -0.0001446312037
15.24 0.003865033683 0.001080422099 -0.0001446403629
15.25 0.003864834854 0.001081109303 -0.0001446495166
15.26 0.00386463591 0.00108179647 -0.0001446586647
15.27 0.003864436851 0.0010824836 -0.0001446678072
15.28 0.003864237676 0.001083170693 -0.0001446769442
15.29 0.003864038386 0.00108385775 -0.0001446860757
15.3 0.003863838981 0.00108454477 -0.0001446952016
15.31 0.00386363946 0.001085231752 -0.0001447043219
15.32 0.003863439824 0.001085918698 -0.0001447134368
15.33 0.003863240073 0.001086605607 -0.000144722546
15.34 0.003863040206 0.001087292479 -0.0001447316497
15.35 0.003862840225 0.001087979314 -0.0001447407479
15.36 0.003862640127 0.001088666112 -0.0001447498405
15.37 0.003862439915 0.001089352873 -0.0001447589275
15.38 0.003862239587 0.001090039598 -0.000144768009
15.39 0.003862039144 0.001090726285 -0.0001447770849
15.4 0.003861838585 0.001091412935 -0.0001447861553
15.41 0.003861637912 0.001092099548 -0.0001447952202
15.42 0.003861437123 0.001092786123 -0.0001448042794
15.43 0.003861236218 0.001093472662 -0.0001448133332
15.44 0.003861035199 0.001094159164 -0.0001448223813
15.45 0.003860834064 0.001094845628 -0.000144831424
15.46 0.003860632814 0.001095532056 -0.000144840461
15.47 0.003860431449 0.001096218446 -0.0001448494925
15.48 0.003860229969 0.001096904799 -0.0001448585185
15.49 0.003860028373 0.001097591115 -0.0001448675389
15.5 0.003859826662 0.001098277394 -0.0001448765538
15.51 0.003859624836 0.001098963635 -0.0001448855631
15.52 0.003859422895 0.00109964984 -0.0001448945668
15.53 0.003859220839 0.001100336007 -0.000144903565
15.54 0.003859018667 0.001101022136 -0.0001449125576
15.55 0.00385881638 0.001101708229 -0.0001449215447
15.56 0.003858613978 0.001102394284 -0.0001449305262
15.57 0.003858411461 0.001103080302 -0.0001449395022
15.58 0.003858208829 0.001103766283 -0.0001449484726
15.59 0.003858006081 0.001104452226 -0.0001449574374
15.6 0.003857803219 0.001105138132 -0.0001449663967
15.61 0.003857600241 0.001105824 -0.0001449753504
15.62 0.003857397148 0.001106509831 -0.0001449842986
15.63 0.00385719394 0.001107195625 -0.0001449932412
15.64 0.003856990617 0.001107881381 -0.0001450021783
15.65 0.003856787179 0.0011085671 -0.0001450111098
15.66 0.003856583626 0.001109252782 -0.0001450200357
15.67 0.003856379957 0.001109938425 -0.0001450289561
15.68 0.003856176174 0.001110624032 -0.000145037871
15.69 0.003855972275 0.001111309601 -0.0001450467802
15.7 0.003855768261 0.001111995132 -0.0001450556839
15.71 0.003855564133 0.001112680626 -0.0001450645821
15.72 0.003855359889 0.001113366083 -0.0001450734747
15.73 0.00385515553 0.001114051501 -0.0001450823617
15.74 0.003854951056 0.001114736883 -0.0001450912432
15.75 0.003854746467 0.001115422226 -0.0001451001191
15.76 0.003854541763 0.001116107532 -0.0001451089895
15.77 0.003854336944 0.001116792801 -0.0001451178542
15.78 0.00385413201 0.001117478031 -0.0001451267135
15.79 0.003853926961 0.001118163224 -0.0001451355671
15.8 0.003853721797 0.00111884838 -0.0001451444153
15.81 0.003853516518 0.001119533498 -0.0001451532578
15.82 0.003853311124 0.001120218578 -0.0001451620948
15.83 0.003853105615 0.00112090362 -0.0001451709262
15.84 0.003852899991 0.001121588624 -0.0001451797521
15.85 0.003852694251 0.001122273591 -0.0001451885724
15.86 0.003852488397 0.00112295852 -0.0001451973871
15.87 0.003852282428 0.001123643412 -0.0001452061963
15.88 0.003852076344 0.001124328265 -0.0001452149999
15.89 0.003851870146 0.001125013081 -0.000145223798
15.9 0.003851663832 0.001125697859 -0.0001452325905
15.91 0.003851457403 0.001126382599 -0.0001452413774
15.92 0.003851250859 0.001127067301 -0.0001452501588
15.93 0.003851044201 0.001127751965 -0.0001452589346
15.94 0.003850837427 0.001128436591 -0.0001452677048
15.95 0.003850630538 0.00112912118 -0.0001452764695
15.96 0.003850423535 0.00112980573 -0.0001452852286
15.97 0.003850216417 0.001130490243 -0.0001452939821
15.98 0.003850009184 0.001131174717 -0.0001453027301
15.99 0.003849801836 0.001131859154 -0.0001453114725
16 0.003849594373 0.001132543553 -0.0001453202094
16.01 0.003849386795 0.001133227913 -0.0001453289407
16.02 0.003849179102 0.001133912236 -0.0001453376664
16.03 0.003848971295 0.001134596521 -0.0001453463865
16.04 0.003848763372 0.001135280767 -0.0001453551011
16.05 0.003848555335 0.001135964976 -0.0001453638101
16.06 0.003848347183 0.001136649146 -0.0001453725136
16.07 0.003848138916 0.001137333278 -0.0001453812115
16.08 0.003847930534 0.001138017372 -0.0001453899038
16.09 0.003847722038 0.001138701428 -0.0001453985906
16.1 0.003847513426 0.001139385446 -0.0001454072717
16.11 0.0038473047 0.001140069426 -0.0001454159474
16.12 0.003847095859 0.001140753368 -0.0001454246174
16.13 0.003846886903 0.001141437271 -0.0001454332819
16.14 0.003846677833 0.001142121136 -0.0001454419408
16.15 0.003846468647 0.001142804963 -0.0001454505942
16.16 0.003846259347 0.001143488752 -0.000145459242
16.17 0.003846049932 0.001144172502 -0.0001454678842
16.18 0.003845840403 0.001144856214 -0.0001454765208
16.19 0.003845630758 0.001145539888 -0.0001454851519
16.2 0.003845420999 0.001146223524 -0.0001454937774
16.21 0.003845211125 0.001146907121 -0.0001455023973
16.22 0.003845001137 0.00114759068 -0.0001455110117
16.23 0.003844791033 0.001148274201 -0.0001455196205
16.24 0.003844580815 0.001148957683 -0.0001455282237
16.25 0.003844370483 0.001149641127 -0.0001455368214
16.26 0.003844160035 0.001150324532 -0.0001455454135
16.27 0.003843949473 0.001151007899 -0.000145554
16.28 0.003843738796 0.001151691228 -0.000145562581
16.29 0.003843528004 0.001152374518 -0.0001455711563
16.3 0.003843317098 0.001153057769 -0.0001455797261
16.31 0.003843106077 0.001153740983 -0.0001455882904
16.32 0.003842894942 0.001154424157 -0.000145596849
16.33 0.003842683692 0.001155107294 -0.0001456054021
16.34 0.003842472327 0.001155790391 -0.0001456139497
16.35 0.003842260847 0.00115647345 -0.0001456224916
16.36 0.003842049253 0.001157156471 -0.000145631028
16.37 0.003841837544 0.001157839453 -0.0001456395588
16.38 0.003841625721 0.001158522396 -0.000145648084
16.39 0.003841413783 0.001159205301 -0.0001456566037
16.4 0.00384120173 0.001159888167 -0.0001456651178
16.41 0.003840989563 0.001160570995 -0.0001456736263
16.42 0.003840777281 0.001161253784 -0.0001456821292
16.43 0.003840564884 0.001161936534 -0.0001456906266
16.44 0.003840352373 0.001162619246 -0.0001456991184
16.45 0.003840139748 0.001163301919 -0.0001457076046
16.46 0.003839927007 0.001163984553 -0.0001457160852
16.47 0.003839714153 0.001164667148 -0.0001457245603
16.48 0.003839501183 0.001165349705 -0.0001457330298
16.49 0.0038392881 0.001166032223 -0.0001457414937
16.5 0.003839074901 0.001166714702 -0.0001457499521
16.51 0.003838861588 0.001167397142 -0.0001457584049
16.52 0.003838648161 0.001168079544 -0.000145766852
16.53 0.003838434619 0.001168761907 -0.0001457752937
16.54 0.003838220962 0.001169444231 -0.0001457837297
16.55 0.003838007191 0.001170126516 -0.0001457921602
16.56 0.003837793305 0.001170808762 -0.0001458005851
16.57 0.003837579305 0.001171490969 -0.0001458090044
16.58 0.003837365191 0.001172173138 -0.0001458174181
16.59 0.003837150962 0.001172855267 -0.0001458258263
16.6 0.003836936618 0.001173537358 -0.0001458342289
16.61 0.00383672216 0.001174219409 -0.0001458426259
16.62 0.003836507588 0.001174901422 -0.0001458510173
16.63 0.003836292901 0.001175583395 -0.0001458594032
16.64 0.0038360781 0.00117626533 -0.0001458677835
16.65 0.003835863184 0.001176947226 -0.0001458761581
16.66 0.003835648153 0.001177629082 -0.0001458845273
16.67 0.003835433009 0.0011783109 -0.0001458928908
16.68 0.00383521775 0.001178992678 -0.0001459012488
16.69 0.003835002376 0.001179674418 -0.0001459096012
16.7 0.003834786888 0.001180356118 -0.000145917948
16.71 0.003834571286 0.001181037779 -0.0001459262892
16.72 0.003834355569 0.001181719402 -0.0001459346248
16.73 0.003834139738 0.001182400985 -0.0001459429549
16.74 0.003833923792 0.001183082528 -0.0001459512794
16.75 0.003833707733 0.001183764033 -0.0001459595983
16.76 0.003833491558 0.001184445499 -0.0001459679116
16.77 0.00383327527 0.001185126925 -0.0001459762194
16.78 0.003833058867 0.001185808312 -0.0001459845216
16.79 0.003832842349 0.00118648966 -0.0001459928182
16.8 0.003832625718 0.001187170968 -0.0001460011092
16.81 0.003832408972 0.001187852238 -0.0001460093946
16.82 0.003832192111 0.001188533468 -0.0001460176744
16.83 0.003831975137 0.001189214658 -0.0001460259487
16.84 0.003831758048 0.00118989581 -0.0001460342174
16.85 0.003831540844 0.001190576922 -0.0001460424805
16.86 0.003831323527 0.001191257995 -0.000146050738
16.87 0.003831106095 0.001191939028 -0.0001460589899
16.88 0.003830888548 0.001192620022 -0.0001460672363
16.89 0.003830670888 0.001193300977 -0.0001460754771
16.9 0.003830453113 0.001193981892 -0.0001460837123
16.91 0.003830235224 0.001194662768 -0.0001460919419
16.92 0.003830017221 0.001195343605 -0.0001461001659
16.93 0.003829799103 0.001196024402 -0.0001461083843
16.94 0.003829580871 0.001196705159 -0.0001461165972
16.95 0.003829362525 0.001197385877 -0.0001461248045
16.96 0.003829144065 0.001198066556 -0.0001461330061
16.97 0.003828925491 0.001198747195 -0.0001461412022
16.98 0.003828706802 0.001199427794 -0.0001461493928
16.99 0.003828487999 0.001200108354 -0.0001461575777
17 0.003828269082 0.001200788874 -0.0001461657571
17.01 0.00382805005 0.001201469355 -0.0001461739308
17.02 0.003827830905 0.001202149796 -0.000146182099
17.03 0.003827611645 0.001202830198 -0.0001461902616
17.04 0.003827392271 0.00120351056 -0.0001461984186
17.05 0.003827172783 0.001204190882 -0.00014620657
17.06 0.00382695318 0.001204871165 -0.0001462147159
17.07 0.003826733464 0.001205551408 -0.0001462228561
17.08 0.003826513633 0.001206231611 -0.0001462309908
17.09 0.003826293689 0.001206911775 -0.0001462391199
17.1 0.00382607363 0.001207591899 -0.0001462472434
17.11 0.003825853457 0.001208271983 -0.0001462553613
17.12 0.003825633169 0.001208952027 -0.0001462634736
17.13 0.003825412768 0.001209632032 -0.0001462715803
17.14 0.003825192253 0.001210311997 -0.0001462796815
17.15 0.003824971623 0.001210991922 -0.000146287777
17.16 0.003824750879 0.001211671807 -0.000146295867
17.17 0.003824530022 0.001212351653 -0.0001463039514
17.18 0.00382430905 0.001213031458 -0.0001463120302
17.19 0.003824087964 0.001213711224 -0.0001463201034
17.2 0.003823866764 0.00121439095 -0.000146328171
17.21 0.00382364545 0.001215070636 -0.0001463362331
17.22 0.003823424022 0.001215750282 -0.0001463442895
17.23 0.00382320248 0.001216429888 -0.0001463523404
17.24 0.003822980823 0.001217109455 -0.0001463603856
17.25 0.003822759053 0.001217788981 -0.0001463684253
17.26 0.003822537169 0.001218468467 -0.0001463764594
17.27 0.00382231517 0.001219147913 -0.0001463844879
17.28 0.003822093058 0.00121982732 -0.0001463925108
17.29 0.003821870832 0.001220506686 -0.0001464005281
17.3 0.003821648491 0.001221186012 -0.0001464085398
17.31 0.003821426037 0.001221865299 -0.000146416546
17.32 0.003821203469 0.001222544545 -0.0001464245465
17.33 0.003820980786 0.001223223751 -0.0001464325415
17.34 0.00382075799 0.001223902917 -0.0001464405308
17.35 0.003820535079 0.001224582043 -0.0001464485146
17.36 0.003820312055 0.001225261129 -0.0001464564928
17.37 0.003820088917 0.001225940174 -0.0001464644654
17.38 0.003819865665 0.00122661918 -0.0001464724323
17.39 0.003819642299 0.001227298145 -0.0001464803938
17.4 0.003819418818 0.00122797707 -0.0001464883496
17.41 0.003819195224 0.001228655955 -0.0001464962998
17.42 0.003818971516 0.0012293348 -0.0001465042444
17.43 0.003818747694 0.001230013604 -0.0001465121834
17.44 0.003818523759 0.001230692369 -0.0001465201169
17.45 0.003818299709 0.001231371093 -0.0001465280447
17.46 0.003818075545 0.001232049776 -0.000146535967
17.47 0.003817851268 0.00123272842 -0.0001465438836
17.48 0.003817626876 0.001233407023 -0.0001465517947
17.49 0.003817402371 0.001234085585 -0.0001465597002
17.5 0.003817177752 0.001234764108 -0.0001465676001
17.51 0.003816953019 0.00123544259 -0.0001465754944
17.52 0.003816728172 0.001236121032 -0.000146583383
17.53 0.003816503211 0.001236799433 -0.0001465912661
17.54 0.003816278137 0.001237477794 -0.0001465991436
17.55 0.003816052948 0.001238156114 -0.0001466070155
17.56 0.003815827646 0.001238834394 -0.0001466148819
17.57 0.00381560223 0.001239512634 -0.0001466227426
17.58 0.0038153767 0.001240190833 -0.0001466305977
17.59 0.003815151056 0.001240868992 -0.0001466384472
17.6 0.003814925299 0.00124154711 -0.0001466462911
17.61 0.003814699427 0.001242225187 -0.0001466541295
17.62 0.003814473442 0.001242903224 -0.0001466619622
17.63 0.003814247343 0.001243581221 -0.0001466697894
17.64 0.003814021131 0.001244259177 -0.0001466776109
17.65 0.003813794804 0.001244937092 -0.0001466854268
17.66 0.003813568364 0.001245614967 -0.0001466932372
17.67 0.00381334181 0.001246292801 -0.0001467010419
17.68 0.003813115142 0.001246970595 -0.0001467088411
17.69 0.003812888361 0.001247648348 -0.0001467166347
17.7 0.003812661466 0.00124832606 -0.0001467244226
17.71 0.003812434457 0.001249003732 -0.000146732205
17.72 0.003812207334 0.001249681363 -0.0001467399817
17.73 0.003811980098 0.001250358953 -0.0001467477529
17.74 0.003811752747 0.001251036502 -0.0001467555185
17.75 0.003811525284 0.001251714011 -0.0001467632784
17.76 0.003811297706 0.001252391479 -0.0001467710328
17.77 0.003811070015 0.001253068906 -0.0001467787816
17.78 0.00381084221 0.001253746293 -0.0001467865248
17.79 0.003810614291 0.001254423639 -0.0001467942623
17.8 0.003810386259 0.001255100943 -0.0001468019943
17.81 0.003810158113 0.001255778208 -0.0001468097207
17.82 0.003809929854 0.001256455431 -0.0001468174414
17.83 0.00380970148 0.001257132613 -0.0001468251566
17.84 0.003809472994 0.001257809755 -0.0001468328662
17.85 0.003809244393 0.001258486855 -0.0001468405702
17.86 0.003809015679 0.001259163915 -0.0001468482685
17.87 0.003808786851 0.001259840934 -0.0001468559613
17.88 0.00380855791 0.001260517911 -0.0001468636485
17.89 0.003808328855 0.001261194848 -0.00014687133
17.9 0.003808099686 0.001261871744 -0.000146879006
17.91 0.003807870404 0.001262548599 -0.0001468866764
17.92 0.003807641008 0.001263225413 -0.0001468943411
17.93 0.003807411499 0.001263902186 -0.0001469020003
17.94 0.003807181876 0.001264578918 -0.0001469096538
17.95 0.003806952139 0.001265255609 -0.0001469173018
17.96 0.003806722289 0.001265932259 -0.0001469249441
17.97 0.003806492326 0.001266608867 -0.0001469325809
17.98 0.003806262248 0.001267285435 -0.000146940212
17.99 0.003806032058 0.001267961961 -0.0001469478376
18 0.003805801753 0.001268638447 -0.0001469554575
18.01 0.003805571336 0.001269314891 -0.0001469630719
18.02 0.003805340804 0.001269991294 -0.0001469706806
18.03 0.003805110159 0.001270667656 -0.0001469782837
18.04 0.003804879401 0.001271343977 -0.0001469858813
18.05 0.003804648529 0.001272020256 -0.0001469934732
18.06 0.003804417544 0.001272696495 -0.0001470010595
18.07 0.003804186445 0.001273372692 -0.0001470086402
18.08 0.003803955233 0.001274048848 -0.0001470162153
18.09 0.003803723907 0.001274724962 -0.0001470237848
18.1 0.003803492468 0.001275401035 -0.0001470313487
18.11 0.003803260915 0.001276077067 -0.000147038907
18.12 0.003803029249 0.001276753058 -0.0001470464597
18.13 0.003802797469 0.001277429008 -0.0001470540068
18.14 0.003802565576 0.001278104916 -0.0001470615483
18.15 0.00380233357 0.001278780782 -0.0001470690841
18.16 0.00380210145 0.001279456608 -0.0001470766144
18.17 0.003801869216 0.001280132391 -0.0001470841391
18.18 0.00380163687 0.001280808134 -0.0001470916581
18.19 0.003801404409 0.001281483835 -0.0001470991716
18.2 0.003801171836 0.001282159495 -0.0001471066794
18.21 0.003800939149 0.001282835113 -0.0001471141816
18.22 0.003800706348 0.00128351069 -0.0001471216782
18.23 0.003800473435 0.001284186225 -0.0001471291693
18.24 0.003800240408 0.001284861719 -0.0001471366547
18.25 0.003800007267 0.001285537171 -0.0001471441345
18.26 0.003799774013 0.001286212582 -0.0001471516087
18.27 0.003799540646 0.001286887951 -0.0001471590772
18.28 0.003799307166 0.001287563279 -0.0001471665402
18.29 0.003799073572 0.001288238565 -0.0001471739976
18.3 0.003798839864 0.001288913809 -0.0001471814494
18.31 0.003798606044 0.001289589012 -0.0001471888955
18.32 0.00379837211 0.001290264173 -0.000147196336
18.33 0.003798138063 0.001290939293 -0.000147203771
18.34 0.003797903902 0.001291614371 -0.0001472112003
18.35 0.003797669629 0.001292289407 -0.000147218624
18.36 0.003797435242 0.001292964402 -0.0001472260421
18.37 0.003797200741 0.001293639355 -0.0001472334546
18.38 0.003796966128 0.001294314266 -0.0001472408615
18.39 0.003796731401 0.001294989135 -0.0001472482628
18.4 0.003796496561 0.001295663963 -0.0001472556584
18.41 0.003796261607 0.001296338749 -0.0001472630485
18.42 0.00379602654 0.001297013493 -0.0001472704329
18.43 0.003795791361 0.001297688195 -0.0001472778118
18.44 0.003795556067 0.001298362856 -0.000147285185
18.45 0.003795320661 0.001299037475 -0.0001472925526
18.46 0.003795085141 0.001299712052 -0.0001472999146
18.47 0.003794849509 0.001300386587 -0.000147307271
18.48 0.003794613763 0.00130106108 -0.0001473146217
18.49 0.003794377903 0.001301735531 -0.0001473219669
18.5 0.003794141931 0.001302409941 -0.0001473293065
18.51 0.003793905845 0.001303084308 -0.0001473366404
18.52 0.003793669646 0.001303758634 -0.0001473439687
18.53 0.003793433334 0.001304432917 -0.0001473512914
18.54 0.003793196909 0.001305107159 -0.0001473586085
18.55 0.003792960371 0.001305781359 -0.00014736592
18.56 0.003792723719 0.001306455516 -0.0001473732259
18.57 0.003792486955 0.001307129632 -0.0001473805261
18.58 0.003792250077 0.001307803706 -0.0001473878208
18.59 0.003792013086 0.001308477737 -0.0001473951098
18.6 0.003791775982 0.001309151727 -0.0001474023932
18.61 0.003791538765 0.001309825674 -0.000147409671
18.62 0.003791301435 0.00131049958 -0.0001474169432
18.63 0.003791063991 0.001311173443 -0.0001474242098
18.64 0.003790826435 0.001311847264 -0.0001474314708
18.65 0.003790588765 0.001312521043 -0.0001474387261
18.66 0.003790350982 0.00131319478 -0.0001474459758
18.67 0.003790113087 0.001313868475 -0.0001474532199
18.68 0.003789875078 0.001314542127 -0.0001474604584
18.69 0.003789636956 0.001315215738 -0.0001474676913
18.7 0.003789398721 0.001315889306 -0.0001474749186
18.71 0.003789160373 0.001316562832 -0.0001474821402
18.72 0.003788921912 0.001317236315 -0.0001474893563
18.73 0.003788683338 0.001317909757 -0.0001474965667
18.74 0.003788444651 0.001318583156 -0.0001475037715
18.75 0.003788205851 0.001319256513 -0.0001475109707
18.76 0.003787966937 0.001319929827 -0.0001475181643
18.77 0.003787727911 0.001320603099 -0.0001475253522
18.78 0.003787488772 0.001321276329 -0.0001475325346
18.79 0.00378724952 0.001321949517 -0.0001475397113
18.8 0.003787010155 0.001322622662 -0.0001475468824
18.81 0.003786770677 0.001323295765 -0.0001475540479
18.82 0.003786531085 0.001323968825 -0.0001475612077
18.83 0.003786291381 0.001324641843 -0.000147568362
18.84 0.003786051564 0.001325314819 -0.0001475755106
18.85 0.003785811634 0.001325987752 -0.0001475826536
18.86 0.003785571591 0.001326660643 -0.000147589791
18.87 0.003785331435 0.001327333491 -0.0001475969228
18.88 0.003785091166 0.001328006296 -0.0001476040489
18.89 0.003784850784 0.00132867906 -0.0001476111695
18.9 0.00378461029 0.00132935178 -0.0001476182844
18.91 0.003784369682 0.001330024458 -0.0001476253937
18.92 0.003784128961 0.001330697094 -0.0001476324974
18.93 0.003783888128 0.001331369687 -0.0001476395954
18.94 0.003783647182 0.001332042237 -0.0001476466879
18.95 0.003783406122 0.001332714745 -0.0001476537747
18.96 0.00378316495 0.00133338721 -0.0001476608559
18.97 0.003782923665 0.001334059633 -0.0001476679315
18.98 0.003782682267 0.001334732013 -0.0001476750014
18.99 0.003782440757 0.00133540435 -0.0001476820657
19 0.003782199133 0.001336076645 -0.0001476891245
19.01 0.003781957397 0.001336748896 -0.0001476961776
19.02 0.003781715547 0.001337421106 -0.000147703225
19.03 0.003781473585 0.001338093272 -0.0001477102669
19.04 0.00378123151 0.001338765396 -0.0001477173031
19.05 0.003780989322 0.001339437477 -0.0001477243337
19.06 0.003780747022 0.001340109515 -0.0001477313587
19.07 0.003780504608 0.00134078151 -0.0001477383781
19.08 0.003780262082 0.001341453463 -0.0001477453918
19.09 0.003780019443 0.001342125373 -0.0001477523999
19.1 0.003779776691 0.00134279724 -0.0001477594024
19.11 0.003779533827 0.001343469064 -0.0001477663993
19.12 0.003779290849 0.001344140845 -0.0001477733906
19.13 0.003779047759 0.001344812583 -0.0001477803762
19.14 0.003778804556 0.001345484279 -0.0001477873562
19.15 0.003778561241 0.001346155932 -0.0001477943306
19.16 0.003778317812 0.001346827541 -0.0001478012993
19.17 0.003778074271 0.001347499108 -0.0001478082625
19.18 0.003777830617 0.001348170632 -0.00014781522
19.19 0.003777586851 0.001348842112 -0.0001478221719
19.2 0.003777342972 0.00134951355 -0.0001478291181
19.21 0.00377709898 0.001350184945 -0.0001478360588
19.22 0.003776854875 0.001350856297 -0.0001478429938
19.23 0.003776610657 0.001351527606 -0.0001478499232
19.24 0.003776366327 0.001352198871 -0.0001478568469
19.25 0.003776121885 0.001352870094 -0.0001478637651
19.26 0.003775877329 0.001353541273 -0.0001478706776
19.27 0.003775632661 0.00135421241 -0.0001478775844
19.28 0.00377538788 0.001354883503 -0.0001478844857
19.29 0.003775142987 0.001355554553 -0.0001478913813
19.3 0.003774897981 0.001356225561 -0.0001478982714
19.31 0.003774652862 0.001356896524 -0.0001479051557
19.32 0.00377440763 0.001357567445 -0.0001479120345
19.33 0.003774162286 0.001358238323 -0.0001479189076
19.34 0.00377391683 0.001358909157 -0.0001479257751
19.35 0.00377367126 0.001359579948 -0.000147932637
19.36 0.003773425579 0.001360250696 -0.0001479394932
19.37 0.003773179784 0.001360921401 -0.0001479463439
19.38 0.003772933877 0.001361592062 -0.0001479531889
19.39 0.003772687857 0.00136226268 -0.0001479600282
19.4 0.003772441725 0.001362933255 -0.000147966862
19.41 0.00377219548 0.001363603787 -0.0001479736901
19.42 0.003771949123 0.001364274275 -0.0001479805126
19.43 0.003771702653 0.00136494472 -0.0001479873294
19.44 0.003771456071 0.001365615121 -0.0001479941406
19.45 0.003771209375 0.001366285479 -0.0001480009462
19.46 0.003770962568 0.001366955794 -0.0001480077462
19.47 0.003770715648 0.001367626065 -0.0001480145405
19.48 0.003770468615 0.001368296293 -0.0001480213293
19.49 0.00377022147 0.001368966478 -0.0001480281123
19.5 0.003769974212 0.001369636619 -0.0001480348898
19.51 0.003769726842 0.001370306716 -0.0001480416616
19.52 0.003769479359 0.00137097677 -0.0001480484278
19.53 0.003769231764 0.001371646781 -0.0001480551884
19.54 0.003768984056 0.001372316748 -0.0001480619433
19.55 0.003768736236 0.001372986671 -0.0001480686926
19.56 0.003768488304 0.001373656551 -0.0001480754363
19.57 0.003768240259 0.001374326388 -0.0001480821743
19.58 0.003767992101 0.00137499618 -0.0001480889067
19.59 0.003767743831 0.00137566593 -0.0001480956335
19.6 0.003767495449 0.001376335635 -0.0001481023547
19.61 0.003767246954 0.001377005297 -0.0001481090702
19.62 0.003766998346 0.001377674916 -0.0001481157801
19.63 0.003766749627 0.001378344491 -0.0001481224843
19.64 0.003766500794 0.001379014022 -0.0001481291829
19.65 0.00376625185 0.001379683509 -0.0001481358759
19.66 0.003766002793 0.001380352953 -0.0001481425633
19.67 0.003765753624 0.001381022353 -0.000148149245
19.68 0.003765504342 0.001381691709 -0.0001481559211
19.69 0.003765254948 0.001382361021 -0.0001481625916
19.7 0.003765005441 0.00138303029 -0.0001481692564
19.71 0.003764755822 0.001383699515 -0.0001481759156
19.72 0.003764506091 0.001384368696 -0.0001481825692
19.73 0.003764256247 0.001385037834 -0.0001481892171
19.74 0.003764006291 0.001385706927 -0.0001481958594
19.75 0.003763756223 0.001386375977 -0.0001482024961
19.76 0.003763506043 0.001387044983 -0.0001482091271
19.77 0.00376325575 0.001387713945 -0.0001482157525
19.78 0.003763005344 0.001388382863 -0.0001482223723
19.79 0.003762754827 0.001389051737 -0.0001482289864
19.8 0.003762504197 0.001389720567 -0.0001482355949
19.81 0.003762253455 0.001390389354 -0.0001482421977
19.82 0.0037620026 0.001391058096 -0.000148248795
19.83 0.003761751633 0.001391726795 -0.0001482553865
19.84 0.003761500554 0.001392395449 -0.0001482619725
19.85 0.003761249363 0.00139306406 -0.0001482685528
19.86 0.003760998059 0.001393732626 -0.0001482751275
19.87 0.003760746643 0.001394401148 -0.0001482816966
19.88 0.003760495115 0.001395069627 -0.00014828826
19.89 0.003760243475 0.001395738061 -0.0001482948177
19.9 0.003759991722 0.001396406452 -0.0001483013699
19.91 0.003759739857 0.001397074798 -0.0001483079164
19.92 0.00375948788 0.0013977431 -0.0001483144573
19.93 0.003759235791 0.001398411358 -0.0001483209925
19.94 0.00375898359 0.001399079572 -0.0001483275221
19.95 0.003758731276 0.001399747742 -0.000148334046
19.96 0.00375847885 0.001400415867 -0.0001483405644
19.97 0.003758226312 0.001401083948 -0.000148347077
19.98 0.003757973662 0.001401751986 -0.0001483535841
19.99 0.003757720899 0.001402419979 -0.0001483600855
20 0.003757468025 0.001403087927 -0.0001483665813
20.01 0.003757215038 0.001403755832 -0.0001483730714
20.02 0.003756961939 0.001404423692 -0.0001483795559
20.03 0.003756708728 0.001405091508 -0.0001483860348
20.04 0.003756455405 0.00140575928 -0.000148392508
20.05 0.003756201969 0.001406427007 -0.0001483989756
20.06 0.003755948422 0.00140709469 -0.0001484054375
20.07 0.003755694762 0.001407762329 -0.0001484118938
20.08 0.00375544099 0.001408429924 -0.0001484183445
20.09 0.003755187107 0.001409097474 -0.0001484247895
20.1 0.003754933111 0.001409764979 -0.0001484312289
20.11 0.003754679003 0.001410432441 -0.0001484376626
20.12 0.003754424783 0.001411099858 -0.0001484440907
20.13 0.00375417045 0.00141176723 -0.0001484505132
20.14 0.003753916006 0.001412434558 -0.00014845693
20.15 0.00375366145 0.001413101842 -0.0001484633412
20.16 0.003753406781 0.001413769081 -0.0001484697468
20.17 0.003753152001 0.001414436275 -0.0001484761467
20.18 0.003752897108 0.001415103425 -0.0001484825409
20.19 0.003752642104 0.001415770531 -0.0001484889296
20.2 0.003752386987 0.001416437592 -0.0001484953126
20.21 0.003752131759 0.001417104609 -0.0001485016899
20.22 0.003751876418 0.001417771581 -0.0001485080616
20.23 0.003751620966 0.001418438508 -0.0001485144277
20.24 0.003751365401 0.001419105391 -0.0001485207881
20.25 0.003751109724 0.001419772229 -0.0001485271429
20.26 0.003750853936 0.001420439023 -0.000148533492
20.27 0.003750598035 0.001421105771 -0.0001485398355
20.28 0.003750342023 0.001421772476 -0.0001485461734
20.29 0.003750085898 0.001422439135 -0.0001485525056
20.3 0.003749829662 0.00142310575 -0.0001485588321
20.31 0.003749573313 0.00142377232 -0.0001485651531
20.32 0.003749316853 0.001424438846 -0.0001485714683
20.33 0.00374906028 0.001425105327 -0.000148577778
20.34 0.003748803596 0.001425771763 -0.000148584082
20.35 0.0037485468 0.001426438154 -0.0001485903803
20.36 0.003748289892 0.0014271045 -0.000148596673
20.37 0.003748032872 0.001427770802 -0.0001486029601
20.38 0.00374777574 0.001428437059 -0.0001486092415
20.39 0.003747518496 0.001429103271 -0.0001486155173
20.4 0.00374726114 0.001429769438 -0.0001486217874
20.41 0.003747003672 0.00143043556 -0.0001486280519
20.42 0.003746746093 0.001431101638 -0.0001486343108
20.43 0.003746488402 0.001431767671 -0.000148640564
20.44 0.003746230598 0.001432433658 -0.0001486468115
20.45 0.003745972683 0.001433099601 -0.0001486530534
20.46 0.003745714656 0.001433765499 -0.0001486592897
20.47 0.003745456517 0.001434431352 -0.0001486655203
20.48 0.003745198267 0.00143509716 -0.0001486717453
20.49 0.003744939904 0.001435762923 -0.0001486779646
20.5 0.00374468143 0.001436428641 -0.0001486841783
20.51 0.003744422844 0.001437094314 -0.0001486903864
20.52 0.003744164146 0.001437759941 -0.0001486965888
20.53 0.003743905336 0.001438425524 -0.0001487027855
20.54 0.003743646415 0.001439091062 -0.0001487089766
20.55 0.003743387381 0.001439756555 -0.0001487151621
20.56 0.003743128236 0.001440422003 -0.0001487213419
20.57 0.003742868979 0.001441087405 -0.000148727516
20.58 0.003742609611 0.001441752763 -0.0001487336846
20.59 0.00374235013 0.001442418075 -0.0001487398474
20.6 0.003742090538 0.001443083342 -0.0001487460046
20.61 0.003741830834 0.001443748564 -0.0001487521562
20.62 0.003741571019 0.001444413741 -0.0001487583021
20.63 0.003741311091 0.001445078873 -0.0001487644424
20.64 0.003741051052 0.001445743959 -0.000148770577
20.65 0.003740790901 0.001446409 -0.000148776706
20.66 0.003740530639 0.001447073996 -0.0001487828294
20.67 0.003740270264 0.001447738947 -0.000148788947
20.68 0.003740009778 0.001448403852 -0.0001487950591
20.69 0.003739749181 0.001449068713 -0.0001488011655
20.7 0.003739488472 0.001449733527 -0.0001488072662
20.71 0.00373922765 0.001450398297 -0.0001488133613
20.72 0.003738966718 0.001451063021 -0.0001488194507
20.73 0.003738705673 0.0014517277 -0.0001488255345
20.74 0.003738444517 0.001452392334 -0.0001488316127
20.75 0.00373818325 0.001453056922 -0.0001488376852
20.76 0.00373792187 0.001453721464 -0.000148843752
20.77 0.00373766038 0.001454385962 -0.0001488498132
20.78 0.003737398777 0.001455050414 -0.0001488558688
20.79 0.003737137063 0.00145571482 -0.0001488619187
20.8 0.003736875237 0.001456379181 -0.0001488679629
20.81 0.0037366133 0.001457043497 -0.0001488740015
20.82 0.00373635125 0.001457707767 -0.0001488800344
20.83 0.00373608909 0.001458371991 -0.0001488860617
20.84 0.003735826818 0.00145903617 -0.0001488920834
20.85 0.003735564434 0.001459700304 -0.0001488980994
20.86 0.003735301939 0.001460364392 -0.0001489041097
20.87 0.003735039332 0.001461028434 -0.0001489101144
20.88 0.003734776613 0.001461692431 -0.0001489161134
20.89 0.003734513783 0.001462356382 -0.0001489221068
20.9 0.003734250841 0.001463020288 -0.0001489280945
20.91 0.003733987788 0.001463684148 -0.0001489340766
20.92 0.003733724624 0.001464347962 -0.000148940053
20.93 0.003733461347 0.001465011731 -0.0001489460238
20.94 0.00373319796 0.001465675454 -0.0001489519889
20.95 0.00373293446 0.001466339131 -0.0001489579484
20.96 0.00373267085 0.001467002763 -0.0001489639022
20.97 0.003732407128 0.001467666349 -0.0001489698504
20.98 0.003732143294 0.001468329889 -0.0001489757929
20.99 0.003731879349 0.001468993383 -0.0001489817298
21 0.003731615292 0.001469656832 -0.000148987661
21.01 0.003731351124 0.001470320235 -0.0001489935865
21.02 0.003731086844 0.001470983592 -0.0001489995064
21.03 0.003730822453 0.001471646903 -0.0001490054207
21.04 0.003730557951 0.001472310169 -0.0001490113293
21.05 0.003730293337 0.001472973388 -0.0001490172322
21.06 0.003730028611 0.001473636562 -0.0001490231295
21.07 0.003729763774 0.00147429969 -0.0001490290211
21.08 0.003729498826 0.001474962772 -0.0001490349071
21.09 0.003729233766 0.001475625808 -0.0001490407874
21.1 0.003728968595 0.001476288798 -0.000149046662
21.11 0.003728703313 0.001476951742 -0.0001490525311
21.12 0.003728437919 0.001477614641 -0.0001490583944
21.13 0.003728172414 0.001478277493 -0.0001490642521
21.14 0.003727906797 0.0014789403 -0.0001490701041
21.15 0.003727641069 0.00147960306 -0.0001490759505
21.16 0.00372737523 0.001480265774 -0.0001490817913
21.17 0.003727109279 0.001480928443 -0.0001490876263
21.18 0.003726843217 0.001481591065 -0.0001490934558
21.19 0.003726577043 0.001482253641 -0.0001490992795
21.2 0.003726310759 0.001482916171 -0.0001491050976
21.21 0.003726044363 0.001483578656 -0.0001491109101
21.22 0.003725777855 0.001484241094 -0.0001491167169
21.23 0.003725511236 0.001484903485 -0.000149122518
21.24 0.003725244506 0.001485565831 -0.0001491283135
21.25 0.003724977665 0.001486228131 -0.0001491341033
21.26 0.003724710712 0.001486890384 -0.0001491398875
21.27 0.003724443648 0.001487552592 -0.000149145666
21.28 0.003724176473 0.001488214753 -0.0001491514388
21.29 0.003723909187 0.001488876868 -0.000149157206
21.3 0.003723641789 0.001489538936 -0.0001491629675
21.31 0.00372337428 0.001490200959 -0.0001491687234
21.32 0.00372310666 0.001490862935 -0.0001491744736
21.33 0.003722838928 0.001491524865 -0.0001491802182
21.34 0.003722571085 0.001492186748 -0.0001491859571
21.35 0.003722303131 0.001492848586 -0.0001491916903
21.36 0.003722035066 0.001493510377 -0.0001491974179
21.37 0.00372176689 0.001494172121 -0.0001492031398
21.38 0.003721498602 0.00149483382 -0.0001492088561
21.39 0.003721230203 0.001495495472 -0.0001492145667
21.4 0.003720961693 0.001496157077 -0.0001492202716
21.41 0.003720693072 0.001496818636 -0.0001492259709
21.42 0.003720424339 0.001497480149 -0.0001492316646
21.43 0.003720155496 0.001498141616 -0.0001492373525
21.44 0.003719886541 0.001498803035 -0.0001492430348
21.45 0.003719617475 0.001499464409 -0.0001492487115
21.46 0.003719348298 0.001500125736 -0.0001492543825
21.47 0.003719079009 0.001500787016 -0.0001492600478
21.48 0.00371880961 0.00150144825 -0.0001492657074
21.49 0.003718540099 0.001502109438 -0.0001492713615
21.5 0.003718270478 0.001502770579 -0.0001492770098
21.51 0.003718000745 0.001503431673 -0.0001492826525
21.52 0.003717730901 0.001504092721 -0.0001492882895
21.53 0.003717460946 0.001504753723 -0.0001492939209
21.54 0.00371719088 0.001505414677 -0.0001492995466
21.55 0.003716920703 0.001506075585 -0.0001493051666
21.56 0.003716650414 0.001506736447 -0.000149310781
21.57 0.003716380015 0.001507397262 -0.0001493163897
21.58 0.003716109505 0.00150805803 -0.0001493219927
21.59 0.003715838883 0.001508718751 -0.0001493275901
21.6 0.00371556815 0.001509379426 -0.0001493331818
21.61 0.003715297307 0.001510040054 -0.0001493387679
21.62 0.003715026352 0.001510700636 -0.0001493443483
21.63 0.003714755286 0.00151136117 -0.000149349923
21.64 0.00371448411 0.001512021658 -0.0001493554921
21.65 0.003714212822 0.0015126821 -0.0001493610555
21.66 0.003713941423 0.001513342494 -0.0001493666133
21.67 0.003713669913 0.001514002842 -0.0001493721654
21.68 0.003713398292 0.001514663142 -0.0001493777118
21.69 0.003713126561 0.001515323396 -0.0001493832525
21.7 0.003712854718 0.001515983604 -0.0001493887876
21.71 0.003712582764 0.001516643764 -0.0001493943171
21.72 0.003712310699 0.001517303877 -0.0001493998408
21.73 0.003712038524 0.001517963944 -0.0001494053589
21.74 0.003711766237 0.001518623964 -0.0001494108714
21.75 0.003711493839 0.001519283936 -0.0001494163781
21.76 0.003711221331 0.001519943862 -0.0001494218792
21.77 0.003710948711 0.001520603741 -0.0001494273747
21.78 0.003710675981 0.001521263573 -0.0001494328644
21.79 0.003710403139 0.001521923358 -0.0001494383486
21.8 0.003710130187 0.001522583096 -0.000149443827
21.81 0.003709857124 0.001523242787 -0.0001494492998
21.82 0.00370958395 0.001523902431 -0.0001494547669
21.83 0.003709310665 0.001524562028 -0.0001494602284
21.84 0.003709037269 0.001525221577 -0.0001494656841
21.85 0.003708763762 0.00152588108 -0.0001494711343
21.86 0.003708490144 0.001526540536 -0.0001494765787
21.87 0.003708216416 0.001527199945 -0.0001494820175
21.88 0.003707942576 0.001527859306 -0.0001494874506
21.89 0.003707668626 0.00152851862 -0.0001494928781
21.9 0.003707394565 0.001529177888 -0.0001494982998
21.91 0.003707120393 0.001529837108 -0.000149503716
21.92 0.00370684611 0.001530496281 -0.0001495091264
21.93 0.003706571717 0.001531155406 -0.0001495145312
21.94 0.003706297212 0.001531814485 -0.0001495199303
21.95 0.003706022597 0.001532473516 -0.0001495253238
21.96 0.003705747871 0.0015331325 -0.0001495307115
21.97 0.003705473034 0.001533791437 -0.0001495360937
21.98 0.003705198086 0.001534450326 -0.0001495414701
21.99 0.003704923028 0.001535109169 -0.0001495468409
22 0.003704647859 0.001535767964 -0.000149552206
22.01 0.003704372579 0.001536426711 -0.0001495575654
22.02 0.003704097188 0.001537085412 -0.0001495629192
22.03 0.003703821687 0.001537744065 -0.0001495682673
22.04 0.003703546074 0.00153840267 -0.0001495736097
22.05 0.003703270351 0.001539061228 -0.0001495789465
22.06 0.003702994518 0.001539719739 -0.0001495842776
22.07 0.003702718573 0.001540378203 -0.000149589603
22.08 0.003702442518 0.001541036619 -0.0001495949228
22.09 0.003702166352 0.001541694987 -0.0001496002369
22.1 0.003701890075 0.001542353308 -0.0001496055453
22.11 0.003701613688 0.001543011582 -0.000149610848
22.12 0.00370133719 0.001543669808 -0.0001496161451
22.13 0.003701060581 0.001544327987 -0.0001496214365
22.14 0.003700783862 0.001544986118 -0.0001496267223
22.15 0.003700507032 0.001545644202 -0.0001496320023
22.16 0.003700230091 0.001546302238 -0.0001496372767
22.17 0.00369995304 0.001546960227 -0.0001496425455
22.18 0.003699675878 0.001547618168 -0.0001496478085
22.19 0.003699398605 0.001548276061 -0.0001496530659
22.2 0.003699121222 0.001548933907 -0.0001496583176
22.21 0.003698843728 0.001549591705 -0.0001496635637
22.22 0.003698566123 0.001550249456 -0.000149668804
22.23 0.003698288408 0.001550907159 -0.0001496740387
22.24 0.003698010582 0.001551564814 -0.0001496792678
22.25 0.003697732646 0.001552222422 -0.0001496844911
22.26 0.003697454599 0.001552879981 -0.0001496897088
22.27 0.003697176441 0.001553537494 -0.0001496949208
22.28 0.003696898173 0.001554194958 -0.0001497001272
22.29 0.003696619794 0.001554852375 -0.0001497053278
22.3 0.003696341305 0.001555509744 -0.0001497105228
22.31 0.003696062705 0.001556167065 -0.0001497157122
22.32 0.003695783995 0.001556824338 -0.0001497208958
22.33 0.003695505174 0.001557481564 -0.0001497260738
22.34 0.003695226242 0.001558138742 -0.0001497312461
22.35 0.0036949472 0.001558795872 -0.0001497364127
22.36 0.003694668048 0.001559452954 -0.0001497415737
22.37 0.003694388785 0.001560109988 -0.000149746729
22.38 0.003694109411 0.001560766975 -0.0001497518786
22.39 0.003693829927 0.001561423913 -0.0001497570225
22.4 0.003693550332 0.001562080804 -0.0001497621608
22.41 0.003693270627 0.001562737646 -0.0001497672934
22.42 0.003692990811 0.001563394441 -0.0001497724203
22.43 0.003692710885 0.001564051188 -0.0001497775415
22.44 0.003692430849 0.001564707887 -0.0001497826571
22.45 0.003692150702 0.001565364537 -0.000149787767
22.46 0.003691870444 0.00156602114 -0.0001497928712
22.47 0.003691590077 0.001566677695 -0.0001497979697
22.48 0.003691309598 0.001567334202 -0.0001498030626
22.49 0.003691029009 0.00156799066 -0.0001498081498
22.5 0.00369074831 0.001568647071 -0.0001498132313
22.51 0.003690467501 0.001569303434 -0.0001498183072
22.52 0.003690186581 0.001569959748 -0.0001498233773
22.53 0.00368990555 0.001570616015 -0.0001498284418
22.54 0.003689624409 0.001571272233 -0.0001498335006
22.55 0.003689343158 0.001571928403 -0.0001498385538
22.56 0.003689061796 0.001572584525 -0.0001498436012
22.57 0.003688780324 0.001573240599 -0.000149848643
22.58 0.003688498742 0.001573896624 -0.0001498536791
22.59 0.003688217049 0.001574552602 -0.0001498587096
22.6 0.003687935246 0.001575208531 -0.0001498637343
22.61 0.003687653333 0.001575864412 -0.0001498687534
22.62 0.003687371309 0.001576520245 -0.0001498737668
22.63 0.003687089175 0.001577176029 -0.0001498787745
22.64 0.00368680693 0.001577831766 -0.0001498837766
22.65 0.003686524576 0.001578487454 -0.0001498887729
22.66 0.003686242111 0.001579143093 -0.0001498937636
22.67 0.003685959535 0.001579798684 -0.0001498987486
22.68 0.00368567685 0.001580454227 -0.000149903728
22.69 0.003685394054 0.001581109722 -0.0001499087016
22.7 0.003685111147 0.001581765168 -0.0001499136696
22.71 0.003684828131 0.001582420566 -0.0001499186319
22.72 0.003684545004 0.001583075916 -0.0001499235885
22.73 0.003684261767 0.001583731217 -0.0001499285395
22.74 0.003683978419 0.001584386469 -0.0001499334848
