# t ax ay az
0 -0.004839402543 -0 -5.974571041e-05
0.01 -0.004839380621 -1.043365884e-06 -5.977146443e-05
0.02 -0.004839358484 -2.086713141e-06 -5.979721465e-05
0.03 -0.004839336131 -3.130041735e-06 -5.982296106e-05
0.04 -0.004839313562 -4.173351626e-06 -5.984870366e-05
0.05 -0.004839290778 -5.216642776e-06 -5.987444245e-05
0.06 -0.004839267778 -6.259915146e-06 -5.990017744e-05
0.07 -0.004839244563 -7.3031687e-06 -5.992590861e-05
0.08 -0.004839221132 -8.346403398e-06 -5.995163597e-05
0.09 -0.004839197485 -9.389619203e-06 -5.997735952e-05
0.1 -0.004839173623 -1.043281607e-05 -6.000307925e-05
0.11 -0.004839149546 -1.147599398e-05 -6.002879517e-05
0.12 -0.004839125252 -1.251915287e-05 -6.005450727e-05
0.13 -0.004839100744 -1.356229272e-05 -6.008021556e-05
0.14 -0.004839076019 -1.460541348e-05 -6.010592002e-05
0.15 -0.004839051079 -1.564851512e-05 -6.013162067e-05
0.16 -0.004839025924 -1.66915976e-05 -6.01573175e-05
0.17 -0.004839000553 -1.773466088e-05 -6.01830105e-05
0.18 -0.004838974967 -1.877770492e-05 -6.020869968e-05
0.19 -0.004838949165 -1.982072969e-05 -6.023438504e-05
0.2 -0.004838923148 -2.086373514e-05 -6.026006657e-05
0.21 -0.004838896915 -2.190672124e-05 -6.028574427e-05
0.22 -0.004838870467 -2.294968795e-05 -6.031141815e-05
0.23 -0.004838843803 -2.399263523e-05 -6.03370882e-05
0.24 -0.004838816924 -2.503556305e-05 -6.036275442e-05
0.25 -0.00483878983 -2.607847136e-05 -6.038841681e-05
0.26 -0.00483876252 -2.712136013e-05 -6.041407536e-05
0.27 -0.004838734995 -2.816422931e-05 -6.043973009e-05
0.28 -0.004838707255 -2.920707888e-05 -6.046538098e-05
0.29 -0.004838679299 -3.02499088e-05 -6.049102803e-05
0.3 -0.004838651127 -3.129271901e-05 -6.051667125e-05
0.31 -0.004838622741 -3.23355095e-05 -6.054231064e-05
0.32 -0.004838594139 -3.337828021e-05 -6.056794618e-05
0.33 -0.004838565322 -3.442103111e-05 -6.059357788e-05
0.34 -0.004838536289 -3.546376217e-05 -6.061920575e-05
0.35 -0.004838507041 -3.650647334e-05 -6.064482977e-05
0.36 -0.004838477578 -3.754916458e-05 -6.067044995e-05
0.37 -0.0048384479 -3.859183587e-05 -6.069606629e-05
0.38 -0.004838418006 -3.963448715e-05 -6.072167878e-05
0.39 -0.004838387897 -4.06771184e-05 -6.074728743e-05
0.4 -0.004838357573 -4.171972957e-05 -6.077289222e-05
0.41 -0.004838327033 -4.276232063e-05 -6.079849318e-05
0.42 -0.004838296279 -4.380489153e-05 -6.082409028e-05
0.43 -0.004838265309 -4.484744225e-05 -6.084968353e-05
0.44 -0.004838234124 -4.588997273e-05 -6.087527293e-05
0.45 -0.004838202724 -4.693248295e-05 -6.090085848e-05
0.46 -0.004838171108 -4.797497287e-05 -6.092644017e-05
0.47 -0.004838139278 -4.901744245e-05 -6.095201801e-05
0.48 -0.004838107232 -5.005989164e-05 -6.0977592e-05
0.49 -0.004838074971 -5.110232042e-05 -6.100316212e-05
0.5 -0.004838042495 -5.214472874e-05 -6.102872839e-05
0.51 -0.004838009804 -5.318711657e-05 -6.10542908e-05
0.52 -0.004837976897 -5.422948386e-05 -6.107984935e-05
0.53 -0.004837943776 -5.527183058e-05 -6.110540404e-05
0.54 -0.00483791044 -5.63141567e-05 -6.113095487e-05
0.55 -0.004837876888 -5.735646217e-05 -6.115650184e-05
0.56 -0.004837843121 -5.839874696e-05 -6.118204494e-05
0.57 -0.00483780914 -5.944101102e-05 -6.120758417e-05
0.58 -0.004837774943 -6.048325433e-05 -6.123311954e-05
0.59 -0.004837740531 -6.152547683e-05 -6.125865104e-05
0.6 -0.004837705905 -6.25676785e-05 -6.128417867e-05
0.61 -0.004837671063 -6.36098593e-05 -6.130970244e-05
0.62 -0.004837636006 -6.465201919e-05 -6.133522233e-05
0.63 -0.004837600734 -6.569415812e-05 -6.136073835e-05
0.64 -0.004837565247 -6.673627607e-05 -6.13862505e-05
0.65 -0.004837529546 -6.777837299e-05 -6.141175877e-05
0.66 -0.004837493629 -6.882044885e-05 -6.143726317e-05
0.67 -0.004837457497 -6.986250361e-05 -6.146276369e-05
0.68 -0.004837421151 -7.090453723e-05 -6.148826033e-05
0.69 -0.004837384589 -7.194654967e-05 -6.15137531e-05
0.7 -0.004837347813 -7.29885409e-05 -6.153924199e-05
0.71 -0.004837310822 -7.403051087e-05 -6.156472699e-05
0.72 -0.004837273615 -7.507245956e-05 -6.159020812e-05
0.73 -0.004837236194 -7.611438691e-05 -6.161568536e-05
0.74 -0.004837198558 -7.71562929e-05 -6.164115872e-05
0.75 -0.004837160708 -7.819817749e-05 -6.166662819e-05
0.76 -0.004837122642 -7.924004063e-05 -6.169209378e-05
0.77 -0.004837084361 -8.028188229e-05 -6.171755548e-05
0.78 -0.004837045866 -8.132370244e-05 -6.174301329e-05
0.79 -0.004837007156 -8.236550102e-05 -6.176846721e-05
0.8 -0.004836968231 -8.340727802e-05 -6.179391725e-05
0.81 -0.004836929091 -8.444903338e-05 -6.181936339e-05
0.82 -0.004836889737 -8.549076708e-05 -6.184480564e-05
0.83 -0.004836850167 -8.653247906e-05 -6.1870244e-05
0.84 -0.004836810383 -8.757416931e-05 -6.189567846e-05
0.85 -0.004836770384 -8.861583777e-05 -6.192110902e-05
0.86 -0.004836730171 -8.965748441e-05 -6.194653569e-05
0.87 -0.004836689743 -9.069910919e-05 -6.197195847e-05
0.88 -0.0048366491 -9.174071207e-05 -6.199737734e-05
0.89 -0.004836608242 -9.278229302e-05 -6.202279231e-05
0.9 -0.004836567169 -9.3823852e-05 -6.204820338e-05
0.91 -0.004836525882 -9.486538897e-05 -6.207361055e-05
0.92 -0.004836484381 -9.590690389e-05 -6.209901382e-05
0.93 -0.004836442664 -9.694839673e-05 -6.212441318e-05
0.94 -0.004836400733 -9.798986745e-05 -6.214980864e-05
0.95 -0.004836358587 -9.9031316e-05 -6.217520019e-05
0.96 -0.004836316227 -0.0001000727424 -6.220058784e-05
0.97 -0.004836273652 -0.0001011141465 -6.222597157e-05
0.98 -0.004836230862 -0.0001021555283 -6.22513514e-05
0.99 -0.004836187858 -0.0001031968879 -6.227672731e-05
1 -0.00483614464 -0.000104238225 -6.230209932e-05
1.01 -0.004836101206 -0.0001052795398 -6.232746741e-05
1.02 -0.004836057558 -0.0001063208322 -6.235283159e-05
1.03 -0.004836013696 -0.0001073621021 -6.237819185e-05
1.04 -0.004835969619 -0.0001084033495 -6.24035482e-05
1.05 -0.004835925327 -0.0001094445744 -6.242890062e-05
1.06 -0.004835880821 -0.0001104857767 -6.245424914e-05
1.07 -0.004835836101 -0.0001115269564 -6.247959373e-05
1.08 -0.004835791166 -0.0001125681134 -6.25049344e-05
1.09 -0.004835746016 -0.0001136092478 -6.253027115e-05
1.1 -0.004835700652 -0.0001146503594 -6.255560398e-05
1.11 -0.004835655074 -0.0001156914483 -6.258093288e-05
1.12 -0.004835609281 -0.0001167325143 -6.260625786e-05
1.13 -0.004835563274 -0.0001177735575 -6.263157892e-05
1.14 -0.004835517052 -0.0001188145779 -6.265689605e-05
1.15 -0.004835470616 -0.0001198555753 -6.268220925e-05
1.16 -0.004835423965 -0.0001208965498 -6.270751852e-05
1.17 -0.0048353771 -0.0001219375012 -6.273282386e-05
1.18 -0.004835330021 -0.0001229784297 -6.275812527e-05
1.19 -0.004835282727 -0.0001240193351 -6.278342275e-05
1.2 -0.004835235219 -0.0001250602174 -6.28087163e-05
1.21 -0.004835187497 -0.0001261010765 -6.283400591e-05
1.22 -0.00483513956 -0.0001271419125 -6.285929158e-05
1.23 -0.004835091409 -0.0001281827252 -6.288457332e-05
1.24 -0.004835043043 -0.0001292235147 -6.290985113e-05
1.25 -0.004834994464 -0.0001302642809 -6.293512499e-05
1.26 -0.00483494567 -0.0001313050238 -6.296039492e-05
1.27 -0.004834896661 -0.0001323457433 -6.29856609e-05
1.28 -0.004834847439 -0.0001333864394 -6.301092295e-05
1.29 -0.004834798002 -0.0001344271121 -6.303618105e-05
1.3 -0.004834748351 -0.0001354677613 -6.30614352e-05
1.31 -0.004834698485 -0.000136508387 -6.308668541e-05
1.32 -0.004834648406 -0.0001375489891 -6.311193168e-05
1.33 -0.004834598112 -0.0001385895676 -6.3137174e-05
1.34 -0.004834547604 -0.0001396301225 -6.316241237e-05
1.35 -0.004834496882 -0.0001406706537 -6.318764679e-05
1.36 -0.004834445946 -0.0001417111613 -6.321287727e-05
1.37 -0.004834394795 -0.0001427516451 -6.323810379e-05
1.38 -0.00483434343 -0.0001437921051 -6.326332636e-05
1.39 -0.004834291851 -0.0001448325413 -6.328854497e-05
1.4 -0.004834240059 -0.0001458729536 -6.331375963e-05
1.41 -0.004834188051 -0.000146913342 -6.333897034e-05
1.42 -0.00483413583 -0.0001479537065 -6.336417709e-05
1.43 -0.004834083395 -0.0001489940471 -6.338937988e-05
1.44 -0.004834030745 -0.0001500343636 -6.341457871e-05
1.45 -0.004833977882 -0.0001510746561 -6.343977359e-05
1.46 -0.004833924804 -0.0001521149246 -6.34649645e-05
1.47 -0.004833871513 -0.0001531551689 -6.349015145e-05
1.48 -0.004833818007 -0.000154195389 -6.351533444e-05
1.49 -0.004833764287 -0.000155235585 -6.354051346e-05
1.5 -0.004833710354 -0.0001562757567 -6.356568852e-05
1.51 -0.004833656206 -0.0001573159042 -6.359085962e-05
1.52 -0.004833601844 -0.0001583560273 -6.361602674e-05
1.53 -0.004833547268 -0.0001593961262 -6.36411899e-05
1.54 -0.004833492479 -0.0001604362006 -6.366634909e-05
1.55 -0.004833437475 -0.0001614762506 -6.369150431e-05
1.56 -0.004833382257 -0.0001625162762 -6.371665556e-05
1.57 -0.004833326826 -0.0001635562773 -6.374180283e-05
1.58 -0.00483327118 -0.0001645962538 -6.376694613e-05
1.59 -0.004833215321 -0.0001656362058 -6.379208546e-05
1.6 -0.004833159247 -0.0001666761332 -6.381722081e-05
1.61 -0.00483310296 -0.0001677160359 -6.384235219e-05
1.62 -0.004833046459 -0.000168755914 -6.386747959e-05
1.63 -0.004832989744 -0.0001697957673 -6.3892603e-05
1.64 -0.004832932815 -0.0001708355959 -6.391772244e-05
1.65 -0.004832875672 -0.0001718753997 -6.39428379e-05
1.66 -0.004832818315 -0.0001729151787 -6.396794938e-05
1.67 -0.004832760745 -0.0001739549328 -6.399305687e-05
1.68 -0.004832702961 -0.000174994662 -6.401816038e-05
1.69 -0.004832644963 -0.0001760343663 -6.404325991e-05
1.7 -0.004832586751 -0.0001770740456 -6.406835544e-05
1.71 -0.004832528325 -0.0001781136998 -6.4093447e-05
1.72 -0.004832469686 -0.0001791533291 -6.411853456e-05
1.73 -0.004832410832 -0.0001801929332 -6.414361813e-05
1.74 -0.004832351765 -0.0001812325122 -6.416869772e-05
1.75 -0.004832292485 -0.000182272066 -6.419377331e-05
1.76 -0.00483223299 -0.0001833115947 -6.421884491e-05
1.77 -0.004832173282 -0.0001843510981 -6.424391252e-05
1.78 -0.00483211336 -0.0001853905762 -6.426897613e-05
1.79 -0.004832053225 -0.000186430029 -6.429403574e-05
1.8 -0.004831992875 -0.0001874694565 -6.431909136e-05
1.81 -0.004831932312 -0.0001885088585 -6.434414299e-05
1.82 -0.004831871536 -0.0001895482352 -6.436919061e-05
1.83 -0.004831810545 -0.0001905875863 -6.439423423e-05
1.84 -0.004831749341 -0.000191626912 -6.441927386e-05
1.85 -0.004831687924 -0.0001926662122 -6.444430948e-05
1.86 -0.004831626293 -0.0001937054867 -6.446934109e-05
1.87 -0.004831564448 -0.0001947447357 -6.449436871e-05
1.88 -0.00483150239 -0.000195783959 -6.451939232e-05
1.89 -0.004831440118 -0.0001968231566 -6.454441192e-05
1.9 -0.004831377632 -0.0001978623285 -6.456942752e-05
1.91 -0.004831314933 -0.0001989014747 -6.45944391e-05
1.92 -0.00483125202 -0.000199940595 -6.461944668e-05
1.93 -0.004831188894 -0.0002009796895 -6.464445025e-05
1.94 -0.004831125555 -0.0002020187581 -6.466944981e-05
1.95 -0.004831062001 -0.0002030578008 -6.469444535e-05
1.96 -0.004830998235 -0.0002040968176 -6.471943688e-05
1.97 -0.004830934254 -0.0002051358084 -6.47444244e-05
1.98 -0.004830870061 -0.0002061747732 -6.47694079e-05
1.99 -0.004830805654 -0.0002072137119 -6.479438738e-05
2 -0.004830741033 -0.0002082526245 -6.481936285e-05
2.01 -0.004830676199 -0.000209291511 -6.48443343e-05
2.02 -0.004830611151 -0.0002103303713 -6.486930173e-05
2.03 -0.00483054589 -0.0002113692054 -6.489426513e-05
2.04 -0.004830480416 -0.0002124080132 -6.491922452e-05
2.05 -0.004830414728 -0.0002134467948 -6.494417988e-05
2.06 -0.004830348827 -0.00021448555 -6.496913122e-05
2.07 -0.004830282713 -0.0002155242789 -6.499407854e-05
2.08 -0.004830216385 -0.0002165629814 -6.501902182e-05
2.09 -0.004830149843 -0.0002176016575 -6.504396108e-05
2.1 -0.004830083089 -0.0002186403071 -6.506889632e-05
2.11 -0.004830016121 -0.0002196789302 -6.509382752e-05
2.12 -0.00482994894 -0.0002207175268 -6.51187547e-05
2.13 -0.004829881545 -0.0002217560967 -6.514367784e-05
2.14 -0.004829813937 -0.0002227946401 -6.516859695e-05
2.15 -0.004829746116 -0.0002238331568 -6.519351202e-05
2.16 -0.004829678082 -0.0002248716468 -6.521842307e-05
2.17 -0.004829609834 -0.0002259101101 -6.524333007e-05
2.18 -0.004829541373 -0.0002269485466 -6.526823304e-05
2.19 -0.004829472699 -0.0002279869564 -6.529313198e-05
2.2 -0.004829403811 -0.0002290253392 -6.531802687e-05
2.21 -0.004829334711 -0.0002300636952 -6.534291773e-05
2.22 -0.004829265397 -0.0002311020243 -6.536780454e-05
2.23 -0.00482919587 -0.0002321403265 -6.539268731e-05
2.24 -0.004829126129 -0.0002331786016 -6.541756604e-05
2.25 -0.004829056176 -0.0002342168497 -6.544244073e-05
2.26 -0.004828986009 -0.0002352550708 -6.546731137e-05
2.27 -0.00482891563 -0.0002362932648 -6.549217797e-05
2.28 -0.004828845037 -0.0002373314316 -6.551704052e-05
2.29 -0.004828774231 -0.0002383695712 -6.554189902e-05
2.3 -0.004828703212 -0.0002394076837 -6.556675347e-05
2.31 -0.004828631979 -0.0002404457689 -6.559160387e-05
2.32 -0.004828560534 -0.0002414838268 -6.561645022e-05
2.33 -0.004828488876 -0.0002425218574 -6.564129252e-05
2.34 -0.004828417004 -0.0002435598606 -6.566613077e-05
2.35 -0.00482834492 -0.0002445978365 -6.569096496e-05
2.36 -0.004828272622 -0.0002456357849 -6.57157951e-05
2.37 -0.004828200111 -0.0002466737058 -6.574062118e-05
2.38 -0.004828127388 -0.0002477115992 -6.57654432e-05
2.39 -0.004828054451 -0.0002487494651 -6.579026116e-05
2.4 -0.004827981301 -0.0002497873034 -6.581507507e-05
2.41 -0.004827907939 -0.0002508251141 -6.583988491e-05
2.42 -0.004827834363 -0.0002518628971 -6.58646907e-05
2.43 -0.004827760575 -0.0002529006525 -6.588949242e-05
2.44 -0.004827686573 -0.0002539383801 -6.591429008e-05
2.45 -0.004827612358 -0.0002549760799 -6.593908367e-05
2.46 -0.004827537931 -0.000256013752 -6.59638732e-05
2.47 -0.004827463291 -0.0002570513962 -6.598865866e-05
2.48 -0.004827388437 -0.0002580890125 -6.601344005e-05
2.49 -0.004827313371 -0.0002591266009 -6.603821738e-05
2.5 -0.004827238092 -0.0002601641614 -6.606299063e-05
2.51 -0.0048271626 -0.0002612016938 -6.608775981e-05
2.52 -0.004827086895 -0.0002622391983 -6.611252493e-05
2.53 -0.004827010978 -0.0002632766747 -6.613728597e-05
2.54 -0.004826934847 -0.000264314123 -6.616204293e-05
2.55 -0.004826858504 -0.0002653515431 -6.618679582e-05
2.56 -0.004826781948 -0.0002663889351 -6.621154464e-05
2.57 -0.004826705179 -0.0002674262989 -6.623628938e-05
2.58 -0.004826628197 -0.0002684636344 -6.626103004e-05
2.59 -0.004826551003 -0.0002695009417 -6.628576662e-05
2.6 -0.004826473595 -0.0002705382206 -6.631049912e-05
2.61 -0.004826395975 -0.0002715754711 -6.633522754e-05
2.62 -0.004826318143 -0.0002726126933 -6.635995187e-05
2.63 -0.004826240097 -0.0002736498871 -6.638467213e-05
2.64 -0.004826161839 -0.0002746870523 -6.64093883e-05
2.65 -0.004826083368 -0.0002757241891 -6.643410038e-05
2.66 -0.004826004684 -0.0002767612973 -6.645880838e-05
2.67 -0.004825925788 -0.000277798377 -6.648351229e-05
2.68 -0.004825846679 -0.000278835428 -6.650821212e-05
2.69 -0.004825767357 -0.0002798724504 -6.653290785e-05
2.7 -0.004825687823 -0.0002809094441 -6.655759949e-05
2.71 -0.004825608076 -0.0002819464091 -6.658228705e-05
2.72 -0.004825528116 -0.0002829833453 -6.660697051e-05
2.73 -0.004825447944 -0.0002840202527 -6.663164987e-05
2.74 -0.004825367559 -0.0002850571313 -6.665632514e-05
2.75 -0.004825286961 -0.000286093981 -6.668099632e-05
2.76 -0.004825206151 -0.0002871308018 -6.67056634e-05
2.77 -0.004825125129 -0.0002881675936 -6.673032638e-05
2.78 -0.004825043893 -0.0002892043565 -6.675498526e-05
2.79 -0.004824962446 -0.0002902410903 -6.677964005e-05
2.8 -0.004824880785 -0.0002912777951 -6.680429073e-05
2.81 -0.004824798913 -0.0002923144708 -6.682893731e-05
2.82 -0.004824716827 -0.0002933511173 -6.685357979e-05
2.83 -0.004824634529 -0.0002943877347 -6.687821816e-05
2.84 -0.004824552019 -0.0002954243229 -6.690285243e-05
2.85 -0.004824469296 -0.0002964608818 -6.69274826e-05
2.86 -0.004824386361 -0.0002974974115 -6.695210865e-05
2.87 -0.004824303213 -0.0002985339118 -6.69767306e-05
2.88 -0.004824219853 -0.0002995703828 -6.700134844e-05
2.89 -0.00482413628 -0.0003006068245 -6.702596217e-05
2.9 -0.004824052495 -0.0003016432366 -6.705057179e-05
2.91 -0.004823968498 -0.0003026796194 -6.70751773e-05
2.92 -0.004823884288 -0.0003037159726 -6.709977869e-05
2.93 -0.004823799866 -0.0003047522963 -6.712437597e-05
2.94 -0.004823715231 -0.0003057885904 -6.714896914e-05
2.95 -0.004823630384 -0.0003068248549 -6.717355819e-05
2.96 -0.004823545325 -0.0003078610898 -6.719814312e-05
2.97 -0.004823460053 -0.0003088972949 -6.722272393e-05
2.98 -0.004823374569 -0.0003099334704 -6.724730063e-05
2.99 -0.004823288873 -0.0003109696161 -6.72718732e-05
3 -0.004823202964 -0.000312005732 -6.729644165e-05
3.01 -0.004823116843 -0.0003130418181 -6.732100598e-05
3.02 -0.00482303051 -0.0003140778743 -6.734556619e-05
3.03 -0.004822943964 -0.0003151139006 -6.737012227e-05
3.04 -0.004822857207 -0.000316149897 -6.739467423e-05
3.05 -0.004822770237 -0.0003171858634 -6.741922206e-05
3.06 -0.004822683054 -0.0003182217998 -6.744376577e-05
3.07 -0.00482259566 -0.0003192577061 -6.746830534e-05
3.08 -0.004822508053 -0.0003202935824 -6.749284079e-05
3.09 -0.004822420234 -0.0003213294285 -6.75173721e-05
3.1 -0.004822332203 -0.0003223652445 -6.754189929e-05
3.11 -0.00482224396 -0.0003234010303 -6.756642234e-05
3.12 -0.004822155505 -0.0003244367858 -6.759094126e-05
3.13 -0.004822066837 -0.0003254725111 -6.761545604e-05
3.14 -0.004821977957 -0.000326508206 -6.763996669e-05
3.15 -0.004821888865 -0.0003275438707 -6.76644732e-05
3.16 -0.004821799561 -0.0003285795049 -6.768897558e-05
3.17 -0.004821710045 -0.0003296151087 -6.771347381e-05
3.18 -0.004821620317 -0.0003306506821 -6.773796791e-05
3.19 -0.004821530377 -0.000331686225 -6.776245786e-05
3.2 -0.004821440225 -0.0003327217373 -6.778694368e-05
3.21 -0.00482134986 -0.0003337572191 -6.781142535e-05
3.22 -0.004821259284 -0.0003347926703 -6.783590287e-05
3.23 -0.004821168495 -0.0003358280909 -6.786037626e-05
3.24 -0.004821077495 -0.0003368634808 -6.788484549e-05
3.25 -0.004820986282 -0.00033789884 -6.790931058e-05
3.26 -0.004820894858 -0.0003389341684 -6.793377152e-05
3.27 -0.004820803221 -0.0003399694661 -6.795822832e-05
3.28 -0.004820711373 -0.0003410047329 -6.798268096e-05
3.29 -0.004820619312 -0.0003420399689 -6.800712945e-05
3.3 -0.00482052704 -0.000343075174 -6.803157379e-05
3.31 -0.004820434555 -0.0003441103481 -6.805601398e-05
3.32 -0.004820341859 -0.0003451454913 -6.808045001e-05
3.33 -0.004820248951 -0.0003461806035 -6.810488189e-05
3.34 -0.004820155831 -0.0003472156847 -6.812930962e-05
3.35 -0.004820062499 -0.0003482507347 -6.815373318e-05
3.36 -0.004819968955 -0.0003492857537 -6.817815259e-05
3.37 -0.004819875199 -0.0003503207415 -6.820256784e-05
3.38 -0.004819781231 -0.0003513556982 -6.822697893e-05
3.39 -0.004819687052 -0.0003523906236 -6.825138585e-05
3.4 -0.00481959266 -0.0003534255177 -6.827578862e-05
3.41 -0.004819498057 -0.0003544603806 -6.830018722e-05
3.42 -0.004819403242 -0.0003554952121 -6.832458166e-05
3.43 -0.004819308216 -0.0003565300123 -6.834897194e-05
3.44 -0.004819212977 -0.0003575647811 -6.837335804e-05
3.45 -0.004819117527 -0.0003585995184 -6.839773998e-05
3.46 -0.004819021864 -0.0003596342242 -6.842211776e-05
3.47 -0.004818925991 -0.0003606688986 -6.844649136e-05
3.48 -0.004818829905 -0.0003617035413 -6.847086079e-05
3.49 -0.004818733608 -0.0003627381525 -6.849522605e-05
3.5 -0.004818637099 -0.0003637727321 -6.851958714e-05
3.51 -0.004818540378 -0.00036480728 -6.854394406e-05
3.52 -0.004818443445 -0.0003658417963 -6.85682968e-05
3.53 -0.004818346301 -0.0003668762808 -6.859264537e-05
3.54 -0.004818248945 -0.0003679107335 -6.861698976e-05
3.55 -0.004818151378 -0.0003689451544 -6.864132997e-05
3.56 -0.004818053599 -0.0003699795435 -6.866566601e-05
3.57 -0.004817955608 -0.0003710139007 -6.868999786e-05
3.58 -0.004817857405 -0.000372048226 -6.871432554e-05
3.59 -0.004817758991 -0.0003730825193 -6.873864903e-05
3.6 -0.004817660366 -0.0003741167806 -6.876296834e-05
3.61 -0.004817561529 -0.00037515101 -6.878728347e-05
3.62 -0.00481746248 -0.0003761852072 -6.881159442e-05
3.63 -0.004817363219 -0.0003772193724 -6.883590118e-05
3.64 -0.004817263747 -0.0003782535054 -6.886020375e-05
3.65 -0.004817164064 -0.0003792876063 -6.888450213e-05
3.66 -0.004817064169 -0.000380321675 -6.890879633e-05
3.67 -0.004816964062 -0.0003813557114 -6.893308634e-05
3.68 -0.004816863744 -0.0003823897155 -6.895737216e-05
3.69 -0.004816763215 -0.0003834236873 -6.898165378e-05
3.7 -0.004816662474 -0.0003844576268 -6.900593121e-05
3.71 -0.004816561521 -0.0003854915339 -6.903020445e-05
3.72 -0.004816460357 -0.0003865254086 -6.90544735e-05
3.73 -0.004816358982 -0.0003875592508 -6.907873835e-05
3.74 -0.004816257395 -0.0003885930605 -6.9102999e-05
3.75 -0.004816155597 -0.0003896268377 -6.912725546e-05
3.76 -0.004816053587 -0.0003906605823 -6.915150772e-05
3.77 -0.004815951366 -0.0003916942943 -6.917575577e-05
3.78 -0.004815848934 -0.0003927279736 -6.919999963e-05
3.79 -0.00481574629 -0.0003937616203 -6.922423929e-05
3.8 -0.004815643435 -0.0003947952343 -6.924847474e-05
3.81 -0.004815540368 -0.0003958288155 -6.927270599e-05
3.82 -0.00481543709 -0.0003968623639 -6.929693304e-05
3.83 -0.004815333601 -0.0003978958795 -6.932115588e-05
3.84 -0.004815229901 -0.0003989293623 -6.934537451e-05
3.85 -0.004815125989 -0.0003999628121 -6.936958894e-05
3.86 -0.004815021866 -0.000400996229 -6.939379916e-05
3.87 -0.004814917531 -0.000402029613 -6.941800516e-05
3.88 -0.004814812986 -0.0004030629639 -6.944220696e-05
3.89 -0.004814708229 -0.0004040962818 -6.946640455e-05
3.9 -0.00481460326 -0.0004051295667 -6.949059792e-05
3.91 -0.004814498081 -0.0004061628184 -6.951478708e-05
3.92 -0.00481439269 -0.0004071960369 -6.953897203e-05
3.93 -0.004814287088 -0.0004082292223 -6.956315275e-05
3.94 -0.004814181275 -0.0004092623745 -6.958732927e-05
3.95 -0.004814075251 -0.0004102954933 -6.961150156e-05
3.96 -0.004813969016 -0.0004113285789 -6.963566964e-05
3.97 -0.004813862569 -0.0004123616312 -6.96598335e-05
3.98 -0.004813755911 -0.0004133946501 -6.968399313e-05
3.99 -0.004813649042 -0.0004144276356 -6.970814855e-05
4 -0.004813541962 -0.0004154605877 -6.973229974e-05
4.01 -0.004813434671 -0.0004164935062 -6.975644671e-05
4.02 -0.004813327169 -0.0004175263913 -6.978058946e-05
4.03 -0.004813219456 -0.0004185592428 -6.980472797e-05
4.04 -0.004813111531 -0.0004195920607 -6.982886227e-05
4.05 -0.004813003396 -0.000420624845 -6.985299233e-05
4.06 -0.004812895049 -0.0004216575957 -6.987711817e-05
4.07 -0.004812786492 -0.0004226903127 -6.990123977e-05
4.08 -0.004812677723 -0.0004237229959 -6.992535715e-05
4.09 -0.004812568744 -0.0004247556453 -6.994947029e-05
4.1 -0.004812459553 -0.000425788261 -6.997357921e-05
4.11 -0.004812350151 -0.0004268208428 -6.999768388e-05
4.12 -0.004812240539 -0.0004278533908 -7.002178433e-05
4.13 -0.004812130715 -0.0004288859048 -7.004588054e-05
4.14 -0.004812020681 -0.0004299183849 -7.006997251e-05
4.15 -0.004811910435 -0.000430950831 -7.009406024e-05
4.16 -0.004811799979 -0.0004319832431 -7.011814374e-05
4.17 -0.004811689311 -0.0004330156211 -7.014222299e-05
4.18 -0.004811578433 -0.000434047965 -7.016629801e-05
4.19 -0.004811467344 -0.0004350802748 -7.019036878e-05
4.2 -0.004811356044 -0.0004361125505 -7.021443531e-05
4.21 -0.004811244533 -0.0004371447919 -7.02384976e-05
4.22 -0.004811132811 -0.0004381769991 -7.026255564e-05
4.23 -0.004811020879 -0.0004392091721 -7.028660944e-05
4.24 -0.004810908735 -0.0004402413107 -7.031065899e-05
4.25 -0.004810796381 -0.000441273415 -7.033470429e-05
4.26 -0.004810683816 -0.0004423054849 -7.035874534e-05
4.27 -0.00481057104 -0.0004433375203 -7.038278215e-05
4.28 -0.004810458053 -0.0004443695214 -7.04068147e-05
4.29 -0.004810344855 -0.0004454014879 -7.043084301e-05
4.3 -0.004810231447 -0.0004464334199 -7.045486706e-05
4.31 -0.004810117828 -0.0004474653174 -7.047888685e-05
4.32 -0.004810003998 -0.0004484971802 -7.050290239e-05
4.33 -0.004809889958 -0.0004495290084 -7.052691368e-05
4.34 -0.004809775707 -0.000450560802 -7.055092071e-05
4.35 -0.004809661245 -0.0004515925608 -7.057492348e-05
4.36 -0.004809546572 -0.0004526242849 -7.0598922e-05
4.37 -0.004809431689 -0.0004536559743 -7.062291625e-05
4.38 -0.004809316595 -0.0004546876288 -7.064690624e-05
4.39 -0.00480920129 -0.0004557192484 -7.067089198e-05
4.4 -0.004809085775 -0.0004567508332 -7.069487345e-05
4.41 -0.004808970049 -0.0004577823831 -7.071885065e-05
4.42 -0.004808854112 -0.000458813898 -7.074282359e-05
4.43 -0.004808737965 -0.0004598453779 -7.076679227e-05
4.44 -0.004808621607 -0.0004608768227 -7.079075668e-05
4.45 -0.004808505039 -0.0004619082325 -7.081471682e-05
4.46 -0.00480838826 -0.0004629396072 -7.08386727e-05
4.47 -0.004808271271 -0.0004639709468 -7.08626243e-05
4.48 -0.00480815407 -0.0004650022512 -7.088657163e-05
4.49 -0.00480803666 -0.0004660335203 -7.09105147e-05
4.5 -0.004807919039 -0.0004670647543 -7.093445349e-05
4.51 -0.004807801207 -0.0004680959529 -7.0958388e-05
4.52 -0.004807683165 -0.0004691271162 -7.098231825e-05
4.53 -0.004807564912 -0.0004701582442 -7.100624421e-05
4.54 -0.004807446449 -0.0004711893368 -7.10301659e-05
4.55 -0.004807327776 -0.000472220394 -7.105408332e-05
4.56 -0.004807208892 -0.0004732514157 -7.107799645e-05
4.57 -0.004807089797 -0.0004742824018 -7.110190531e-05
4.58 -0.004806970492 -0.0004753133525 -7.112580988e-05
4.59 -0.004806850977 -0.0004763442676 -7.114971017e-05
4.6 -0.004806731251 -0.0004773751471 -7.117360619e-05
4.61 -0.004806611315 -0.0004784059909 -7.119749791e-05
4.62 -0.004806491168 -0.0004794367991 -7.122138536e-05
4.63 -0.004806370812 -0.0004804675715 -7.124526851e-05
4.64 -0.004806250244 -0.0004814983082 -7.126914739e-05
4.65 -0.004806129467 -0.0004825290091 -7.129302197e-05
4.66 -0.004806008479 -0.0004835596742 -7.131689227e-05
4.67 -0.004805887281 -0.0004845903034 -7.134075827e-05
4.68 -0.004805765872 -0.0004856208968 -7.136461999e-05
4.69 -0.004805644253 -0.0004866514542 -7.138847742e-05
4.7 -0.004805522424 -0.0004876819756 -7.141233055e-05
4.71 -0.004805400384 -0.0004887124611 -7.143617939e-05
4.72 -0.004805278135 -0.0004897429105 -7.146002394e-05
4.73 -0.004805155675 -0.0004907733238 -7.148386419e-05
4.74 -0.004805033005 -0.000491803701 -7.150770014e-05
4.75 -0.004804910124 -0.0004928340421 -7.15315318e-05
4.76 -0.004804787034 -0.000493864347 -7.155535916e-05
4.77 -0.004804663733 -0.0004948946156 -7.157918222e-05
4.78 -0.004804540222 -0.0004959248481 -7.160300098e-05
4.79 -0.004804416501 -0.0004969550442 -7.162681544e-05
4.8 -0.004804292569 -0.000497985204 -7.16506256e-05
4.81 -0.004804168428 -0.0004990153274 -7.167443145e-05
4.82 -0.004804044076 -0.0005000454145 -7.1698233e-05
4.83 -0.004803919514 -0.0005010754651 -7.172203024e-05
4.84 -0.004803794742 -0.0005021054792 -7.174582318e-05
4.85 -0.00480366976 -0.0005031354569 -7.176961182e-05
4.86 -0.004803544568 -0.000504165398 -7.179339614e-05
4.87 -0.004803419166 -0.0005051953025 -7.181717615e-05
4.88 -0.004803293554 -0.0005062251704 -7.184095186e-05
4.89 -0.004803167732 -0.0005072550017 -7.186472325e-05
4.9 -0.004803041699 -0.0005082847963 -7.188849033e-05
4.91 -0.004802915457 -0.0005093145541 -7.19122531e-05
4.92 -0.004802789004 -0.0005103442753 -7.193601156e-05
4.93 -0.004802662342 -0.0005113739596 -7.19597657e-05
4.94 -0.00480253547 -0.0005124036071 -7.198351552e-05
4.95 -0.004802408387 -0.0005134332177 -7.200726103e-05
4.96 -0.004802281095 -0.0005144627914 -7.203100222e-05
4.97 -0.004802153593 -0.0005154923282 -7.205473909e-05
4.98 -0.00480202588 -0.000516521828 -7.207847164e-05
4.99 -0.004801897958 -0.0005175512909 -7.210219987e-05
5 -0.004801769826 -0.0005185807166 -7.212592378e-05
5.01 -0.004801641484 -0.0005196101053 -7.214964337e-05
5.02 -0.004801512932 -0.0005206394569 -7.217335863e-05
5.03 -0.00480138417 -0.0005216687714 -7.219706957e-05
5.04 -0.004801255199 -0.0005226980486 -7.222077618e-05
5.05 -0.004801126017 -0.0005237272886 -7.224447847e-05
5.06 -0.004800996626 -0.0005247564914 -7.226817642e-05
5.07 -0.004800867024 -0.0005257856569 -7.229187005e-05
5.08 -0.004800737213 -0.000526814785 -7.231555935e-05
5.09 -0.004800607192 -0.0005278438758 -7.233924432e-05
5.1 -0.004800476962 -0.0005288729292 -7.236292496e-05
5.11 -0.004800346521 -0.0005299019452 -7.238660126e-05
5.12 -0.004800215871 -0.0005309309237 -7.241027323e-05
5.13 -0.004800085011 -0.0005319598647 -7.243394087e-05
5.14 -0.004799953941 -0.0005329887681 -7.245760417e-05
5.15 -0.004799822662 -0.000534017634 -7.248126314e-05
5.16 -0.004799691172 -0.0005350464622 -7.250491777e-05
5.17 -0.004799559474 -0.0005360752528 -7.252856806e-05
5.18 -0.004799427565 -0.0005371040057 -7.255221401e-05
5.19 -0.004799295447 -0.0005381327209 -7.257585561e-05
5.2 -0.004799163118 -0.0005391613983 -7.259949288e-05
5.21 -0.004799030581 -0.000540190038 -7.262312581e-05
5.22 -0.004798897833 -0.0005412186398 -7.264675439e-05
5.23 -0.004798764876 -0.0005422472037 -7.267037863e-05
5.24 -0.00479863171 -0.0005432757298 -7.269399852e-05
5.25 -0.004798498334 -0.0005443042179 -7.271761407e-05
5.26 -0.004798364748 -0.0005453326681 -7.274122527e-05
5.27 -0.004798230952 -0.0005463610802 -7.276483212e-05
5.28 -0.004798096947 -0.0005473894543 -7.278843462e-05
5.29 -0.004797962733 -0.0005484177903 -7.281203278e-05
5.3 -0.004797828309 -0.0005494460882 -7.283562658e-05
5.31 -0.004797693675 -0.000550474348 -7.285921603e-05
5.32 -0.004797558832 -0.0005515025695 -7.288280112e-05
5.33 -0.004797423779 -0.0005525307529 -7.290638187e-05
5.34 -0.004797288517 -0.000553558898 -7.292995825e-05
5.35 -0.004797153045 -0.0005545870048 -7.295353029e-05
5.36 -0.004797017364 -0.0005556150733 -7.297709796e-05
5.37 -0.004796881473 -0.0005566431034 -7.300066128e-05
5.38 -0.004796745373 -0.0005576710951 -7.302422023e-05
5.39 -0.004796609063 -0.0005586990484 -7.304777483e-05
5.4 -0.004796472544 -0.0005597269632 -7.307132507e-05
5.41 -0.004796335816 -0.0005607548395 -7.309487095e-05
5.42 -0.004796198878 -0.0005617826773 -7.311841246e-05
5.43 -0.004796061731 -0.0005628104765 -7.314194961e-05
5.44 -0.004795924374 -0.000563838237 -7.316548239e-05
5.45 -0.004795786808 -0.000564865959 -7.318901081e-05
5.46 -0.004795649033 -0.0005658936422 -7.321253486e-05
5.47 -0.004795511048 -0.0005669212867 -7.323605455e-05
5.48 -0.004795372854 -0.0005679488925 -7.325956986e-05
5.49 -0.00479523445 -0.0005689764595 -7.328308081e-05
5.5 -0.004795095838 -0.0005700039876 -7.330658738e-05
5.51 -0.004794957016 -0.0005710314769 -7.333008959e-05
5.52 -0.004794817984 -0.0005720589273 -7.335358742e-05
5.53 -0.004794678744 -0.0005730863388 -7.337708088e-05
5.54 -0.004794539294 -0.0005741137113 -7.340056996e-05
5.55 -0.004794399635 -0.0005751410448 -7.342405467e-05
5.56 -0.004794259767 -0.0005761683392 -7.3447535e-05
5.57 -0.004794119689 -0.0005771955946 -7.347101096e-05
5.58 -0.004793979402 -0.0005782228109 -7.349448253e-05
5.59 -0.004793838906 -0.000579249988 -7.351794973e-05
5.6 -0.004793698201 -0.000580277126 -7.354141255e-05
5.61 -0.004793557287 -0.0005813042247 -7.356487098e-05
5.62 -0.004793416163 -0.0005823312842 -7.358832504e-05
5.63 -0.004793274831 -0.0005833583044 -7.361177471e-05
5.64 -0.004793133289 -0.0005843852852 -7.363522e-05
5.65 -0.004792991538 -0.0005854122267 -7.36586609e-05
5.66 -0.004792849578 -0.0005864391288 -7.368209741e-05
5.67 -0.004792707409 -0.0005874659915 -7.370552954e-05
5.68 -0.004792565031 -0.0005884928147 -7.372895728e-05
5.69 -0.004792422443 -0.0005895195985 -7.375238063e-05
5.7 -0.004792279647 -0.0005905463426 -7.37757996e-05
5.71 -0.004792136642 -0.0005915730472 -7.379921417e-05
5.72 -0.004791993427 -0.0005925997122 -7.382262435e-05
5.73 -0.004791850004 -0.0005936263376 -7.384603013e-05
5.74 -0.004791706371 -0.0005946529233 -7.386943152e-05
5.75 -0.00479156253 -0.0005956794692 -7.389282852e-05
5.76 -0.004791418479 -0.0005967059755 -7.391622112e-05
5.77 -0.00479127422 -0.0005977324419 -7.393960933e-05
5.78 -0.004791129751 -0.0005987588685 -7.396299314e-05
5.79 -0.004790985074 -0.0005997852553 -7.398637255e-05
5.8 -0.004790840188 -0.0006008116021 -7.400974756e-05
5.81 -0.004790695092 -0.0006018379091 -7.403311817e-05
5.82 -0.004790549788 -0.0006028641761 -7.405648438e-05
5.83 -0.004790404275 -0.000603890403 -7.407984618e-05
5.84 -0.004790258553 -0.00060491659 -7.410320358e-05
5.85 -0.004790112622 -0.0006059427369 -7.412655658e-05
5.86 -0.004789966483 -0.0006069688436 -7.414990517e-05
5.87 -0.004789820134 -0.0006079949103 -7.417324936e-05
5.88 -0.004789673577 -0.0006090209367 -7.419658914e-05
5.89 -0.00478952681 -0.000610046923 -7.421992451e-05
5.9 -0.004789379835 -0.000611072869 -7.424325547e-05
5.91 -0.004789232651 -0.0006120987747 -7.426658202e-05
5.92 -0.004789085259 -0.0006131246401 -7.428990416e-05
5.93 -0.004788937657 -0.0006141504652 -7.431322189e-05
5.94 -0.004788789847 -0.0006151762499 -7.433653521e-05
5.95 -0.004788641828 -0.0006162019941 -7.435984411e-05
5.96 -0.0047884936 -0.0006172276979 -7.438314859e-05
5.97 -0.004788345164 -0.0006182533612 -7.440644866e-05
5.98 -0.004788196519 -0.000619278984 -7.442974432e-05
5.99 -0.004788047665 -0.0006203045662 -7.445303555e-05
6 -0.004787898602 -0.0006213301078 -7.447632237e-05
6.01 -0.004787749331 -0.0006223556088 -7.449960477e-05
6.02 -0.004787599851 -0.0006233810691 -7.452288275e-05
6.03 -0.004787450162 -0.0006244064887 -7.45461563e-05
6.04 -0.004787300265 -0.0006254318676 -7.456942543e-05
6.05 -0.004787150159 -0.0006264572057 -7.459269014e-05
6.06 -0.004786999845 -0.0006274825029 -7.461595043e-05
6.07 -0.004786849322 -0.0006285077594 -7.463920628e-05
6.08 -0.00478669859 -0.0006295329749 -7.466245772e-05
6.09 -0.00478654765 -0.0006305581496 -7.468570472e-05
6.1 -0.004786396501 -0.0006315832832 -7.47089473e-05
6.11 -0.004786245143 -0.0006326083759 -7.473218545e-05
6.12 -0.004786093577 -0.0006336334276 -7.475541916e-05
6.13 -0.004785941803 -0.0006346584382 -7.477864845e-05
6.14 -0.00478578982 -0.0006356834077 -7.48018733e-05
6.15 -0.004785637628 -0.0006367083361 -7.482509372e-05
6.16 -0.004785485228 -0.0006377332233 -7.484830971e-05
6.17 -0.00478533262 -0.0006387580694 -7.487152126e-05
6.18 -0.004785179803 -0.0006397828742 -7.489472838e-05
6.19 -0.004785026778 -0.0006408076377 -7.491793105e-05
6.2 -0.004784873544 -0.0006418323599 -7.494112929e-05
6.21 -0.004784720101 -0.0006428570408 -7.49643231e-05
6.22 -0.004784566451 -0.0006438816803 -7.498751246e-05
6.23 -0.004784412591 -0.0006449062783 -7.501069738e-05
6.24 -0.004784258524 -0.000645930835 -7.503387786e-05
6.25 -0.004784104248 -0.0006469553502 -7.505705389e-05
6.26 -0.004783949764 -0.0006479798238 -7.508022549e-05
6.27 -0.004783795071 -0.0006490042559 -7.510339263e-05
6.28 -0.00478364017 -0.0006500286464 -7.512655534e-05
6.29 -0.004783485061 -0.0006510529953 -7.514971359e-05
6.3 -0.004783329743 -0.0006520773025 -7.51728674e-05
6.31 -0.004783174217 -0.000653101568 -7.519601676e-05
6.32 -0.004783018483 -0.0006541257918 -7.521916167e-05
6.33 -0.00478286254 -0.0006551499739 -7.524230213e-05
6.34 -0.004782706389 -0.0006561741141 -7.526543814e-05
6.35 -0.00478255003 -0.0006571982125 -7.52885697e-05
6.36 -0.004782393463 -0.0006582222691 -7.53116968e-05
6.37 -0.004782236687 -0.0006592462837 -7.533481945e-05
6.38 -0.004782079704 -0.0006602702564 -7.535793764e-05
6.39 -0.004781922512 -0.0006612941871 -7.538105138e-05
6.4 -0.004781765111 -0.0006623180758 -7.540416066e-05
6.41 -0.004781607503 -0.0006633419225 -7.542726549e-05
6.42 -0.004781449687 -0.0006643657271 -7.545036585e-05
6.43 -0.004781291662 -0.0006653894895 -7.547346176e-05
6.44 -0.004781133429 -0.0006664132098 -7.54965532e-05
6.45 -0.004780974988 -0.000667436888 -7.551964018e-05
6.46 -0.004780816339 -0.0006684605239 -7.55427227e-05
6.47 -0.004780657482 -0.0006694841175 -7.556580076e-05
6.48 -0.004780498416 -0.0006705076689 -7.558887435e-05
6.49 -0.004780339143 -0.0006715311779 -7.561194347e-05
6.5 -0.004780179661 -0.0006725546446 -7.563500813e-05
6.51 -0.004780019972 -0.0006735780689 -7.565806832e-05
6.52 -0.004779860074 -0.0006746014507 -7.568112405e-05
6.53 -0.004779699969 -0.0006756247901 -7.57041753e-05
6.54 -0.004779539655 -0.000676648087 -7.572722208e-05
6.55 -0.004779379133 -0.0006776713413 -7.57502644e-05
6.56 -0.004779218404 -0.0006786945531 -7.577330224e-05
6.57 -0.004779057466 -0.0006797177223 -7.57963356e-05
6.58 -0.00477889632 -0.0006807408488 -7.581936449e-05
6.59 -0.004778734967 -0.0006817639326 -7.584238891e-05
6.6 -0.004778573405 -0.0006827869737 -7.586540885e-05
6.61 -0.004778411636 -0.0006838099721 -7.588842432e-05
6.62 -0.004778249658 -0.0006848329277 -7.59114353e-05
6.63 -0.004778087473 -0.0006858558405 -7.593444181e-05
6.64 -0.00477792508 -0.0006868787104 -7.595744384e-05
6.65 -0.004777762479 -0.0006879015374 -7.598044139e-05
6.66 -0.00477759967 -0.0006889243216 -7.600343445e-05
6.67 -0.004777436653 -0.0006899470627 -7.602642304e-05
6.68 -0.004777273429 -0.0006909697609 -7.604940714e-05
6.69 -0.004777109996 -0.000691992416 -7.607238675e-05
6.7 -0.004776946356 -0.0006930150281 -7.609536188e-05
6.71 -0.004776782508 -0.000694037597 -7.611833252e-05
6.72 -0.004776618452 -0.0006950601229 -7.614129868e-05
6.73 -0.004776454188 -0.0006960826055 -7.616426035e-05
6.74 -0.004776289716 -0.000697105045 -7.618721752e-05
6.75 -0.004776125037 -0.0006981274412 -7.621017021e-05
6.76 -0.00477596015 -0.0006991497942 -7.623311841e-05
6.77 -0.004775795056 -0.0007001721038 -7.625606211e-05
6.78 -0.004775629753 -0.0007011943701 -7.627900133e-05
6.79 -0.004775464243 -0.000702216593 -7.630193604e-05
6.8 -0.004775298525 -0.0007032387725 -7.632486627e-05
6.81 -0.0047751326 -0.0007042609086 -7.634779199e-05
6.82 -0.004774966466 -0.0007052830011 -7.637071322e-05
6.83 -0.004774800126 -0.0007063050502 -7.639362995e-05
6.84 -0.004774633577 -0.0007073270557 -7.641654219e-05
6.85 -0.004774466821 -0.0007083490176 -7.643944992e-05
6.86 -0.004774299857 -0.0007093709358 -7.646235316e-05
6.87 -0.004774132686 -0.0007103928105 -7.648525189e-05
6.88 -0.004773965307 -0.0007114146414 -7.650814612e-05
6.89 -0.00477379772 -0.0007124364286 -7.653103584e-05
6.9 -0.004773629926 -0.000713458172 -7.655392107e-05
6.91 -0.004773461924 -0.0007144798716 -7.657680178e-05
6.92 -0.004773293715 -0.0007155015274 -7.659967799e-05
6.93 -0.004773125298 -0.0007165231394 -7.662254969e-05
6.94 -0.004772956674 -0.0007175447074 -7.664541689e-05
6.95 -0.004772787842 -0.0007185662315 -7.666827958e-05
6.96 -0.004772618803 -0.0007195877116 -7.669113775e-05
6.97 -0.004772449556 -0.0007206091477 -7.671399142e-05
6.98 -0.004772280102 -0.0007216305397 -7.673684057e-05
6.99 -0.00477211044 -0.0007226518877 -7.675968521e-05
7 -0.004771940571 -0.0007236731916 -7.678252534e-05
7.01 -0.004771770495 -0.0007246944513 -7.680536095e-05
7.02 -0.004771600211 -0.0007257156668 -7.682819204e-05
7.03 -0.004771429719 -0.0007267368381 -7.685101862e-05
7.04 -0.004771259021 -0.0007277579652 -7.687384069e-05
7.05 -0.004771088114 -0.0007287790479 -7.689665823e-05
7.06 -0.004770917001 -0.0007298000864 -7.691947125e-05
7.07 -0.00477074568 -0.0007308210805 -7.694227976e-05
7.08 -0.004770574152 -0.0007318420302 -7.696508374e-05
7.09 -0.004770402416 -0.0007328629354 -7.69878832e-05
7.1 -0.004770230473 -0.0007338837962 -7.701067814e-05
7.11 -0.004770058323 -0.0007349046125 -7.703346855e-05
7.12 -0.004769885965 -0.0007359253843 -7.705625444e-05
7.13 -0.004769713401 -0.0007369461115 -7.70790358e-05
7.14 -0.004769540629 -0.0007379667941 -7.710181264e-05
7.15 -0.004769367649 -0.000738987432 -7.712458494e-05
7.16 -0.004769194463 -0.0007400080253 -7.714735272e-05
7.17 -0.004769021069 -0.0007410285739 -7.717011597e-05
7.18 -0.004768847468 -0.0007420490777 -7.719287469e-05
7.19 -0.00476867366 -0.0007430695368 -7.721562888e-05
7.2 -0.004768499644 -0.000744089951 -7.723837853e-05
7.21 -0.004768325422 -0.0007451103204 -7.726112365e-05
7.22 -0.004768150992 -0.0007461306449 -7.728386424e-05
7.23 -0.004767976355 -0.0007471509245 -7.730660029e-05
7.24 -0.004767801511 -0.0007481711592 -7.732933181e-05
7.25 -0.00476762646 -0.0007491913488 -7.735205878e-05
7.26 -0.004767451202 -0.0007502114935 -7.737478122e-05
7.27 -0.004767275736 -0.0007512315931 -7.739749912e-05
7.28 -0.004767100064 -0.0007522516475 -7.742021248e-05
7.29 -0.004766924184 -0.0007532716569 -7.74429213e-05
7.3 -0.004766748098 -0.0007542916211 -7.746562558e-05
7.31 -0.004766571804 -0.0007553115401 -7.748832532e-05
7.32 -0.004766395303 -0.0007563314139 -7.751102051e-05
7.33 -0.004766218596 -0.0007573512424 -7.753371116e-05
7.34 -0.004766041681 -0.0007583710256 -7.755639726e-05
7.35 -0.004765864559 -0.0007593907635 -7.757907881e-05
7.36 -0.00476568723 -0.000760410456 -7.760175582e-05
7.37 -0.004765509695 -0.0007614301031 -7.762442828e-05
7.38 -0.004765331952 -0.0007624497048 -7.764709619e-05
7.39 -0.004765154002 -0.0007634692609 -7.766975955e-05
7.4 -0.004764975846 -0.0007644887716 -7.769241835e-05
7.41 -0.004764797482 -0.0007655082367 -7.771507261e-05
7.42 -0.004764618912 -0.0007665276563 -7.773772231e-05
7.43 -0.004764440134 -0.0007675470302 -7.776036746e-05
7.44 -0.00476426115 -0.0007685663585 -7.778300806e-05
7.45 -0.004764081959 -0.0007695856412 -7.780564409e-05
7.46 -0.004763902561 -0.000770604878 -7.782827558e-05
7.47 -0.004763722956 -0.0007716240692 -7.78509025e-05
7.48 -0.004763543145 -0.0007726432145 -7.787352486e-05
7.49 -0.004763363126 -0.0007736623141 -7.789614267e-05
7.5 -0.004763182901 -0.0007746813677 -7.791875591e-05
7.51 -0.004763002469 -0.0007757003755 -7.79413646e-05
7.52 -0.00476282183 -0.0007767193374 -7.796396872e-05
7.53 -0.004762640984 -0.0007777382533 -7.798656828e-05
7.54 -0.004762459932 -0.0007787571232 -7.800916327e-05
7.55 -0.004762278673 -0.000779775947 -7.80317537e-05
7.56 -0.004762097207 -0.0007807947248 -7.805433956e-05
7.57 -0.004761915534 -0.0007818134565 -7.807692086e-05
7.58 -0.004761733655 -0.0007828321421 -7.809949758e-05
7.59 -0.004761551569 -0.0007838507815 -7.812206974e-05
7.6 -0.004761369276 -0.0007848693747 -7.814463733e-05
7.61 -0.004761186777 -0.0007858879217 -7.816720035e-05
7.62 -0.004761004071 -0.0007869064223 -7.81897588e-05
7.63 -0.004760821158 -0.0007879248767 -7.821231267e-05
7.64 -0.004760638039 -0.0007889432848 -7.823486197e-05
7.65 -0.004760454713 -0.0007899616464 -7.82574067e-05
7.66 -0.00476027118 -0.0007909799616 -7.827994685e-05
7.67 -0.004760087441 -0.0007919982304 -7.830248242e-05
7.68 -0.004759903495 -0.0007930164528 -7.832501342e-05
7.69 -0.004759719343 -0.0007940346285 -7.834753984e-05
7.7 -0.004759534984 -0.0007950527578 -7.837006168e-05
7.71 -0.004759350419 -0.0007960708404 -7.839257894e-05
7.72 -0.004759165647 -0.0007970888765 -7.841509162e-05
7.73 -0.004758980668 -0.0007981068659 -7.843759972e-05
7.74 -0.004758795483 -0.0007991248086 -7.846010323e-05
7.75 -0.004758610092 -0.0008001427045 -7.848260216e-05
7.76 -0.004758424494 -0.0008011605537 -7.850509651e-05
7.77 -0.004758238689 -0.0008021783562 -7.852758627e-05
7.78 -0.004758052678 -0.0008031961117 -7.855007144e-05
7.79 -0.004757866461 -0.0008042138205 -7.857255203e-05
7.8 -0.004757680037 -0.0008052314823 -7.859502803e-05
7.81 -0.004757493407 -0.0008062490972 -7.861749944e-05
7.82 -0.004757306571 -0.0008072666651 -7.863996626e-05
7.83 -0.004757119528 -0.000808284186 -7.866242849e-05
7.84 -0.004756932278 -0.0008093016599 -7.868488612e-05
7.85 -0.004756744823 -0.0008103190867 -7.870733917e-05
7.86 -0.004756557161 -0.0008113364664 -7.872978762e-05
7.87 -0.004756369292 -0.000812353799 -7.875223147e-05
7.88 -0.004756181217 -0.0008133710844 -7.877467073e-05
7.89 -0.004755992936 -0.0008143883226 -7.879710539e-05
7.9 -0.004755804449 -0.0008154055135 -7.881953546e-05
7.91 -0.004755615755 -0.0008164226572 -7.884196092e-05
7.92 -0.004755426855 -0.0008174397536 -7.886438179e-05
7.93 -0.004755237749 -0.0008184568026 -7.888679806e-05
7.94 -0.004755048437 -0.0008194738042 -7.890920972e-05
7.95 -0.004754858918 -0.0008204907584 -7.893161679e-05
7.96 -0.004754669193 -0.0008215076651 -7.895401925e-05
7.97 -0.004754479262 -0.0008225245244 -7.89764171e-05
7.98 -0.004754289125 -0.0008235413361 -7.899881036e-05
7.99 -0.004754098781 -0.0008245581003 -7.9021199e-05
8 -0.004753908232 -0.0008255748169 -7.904358304e-05
8.01 -0.004753717476 -0.0008265914859 -7.906596247e-05
8.02 -0.004753526514 -0.0008276081072 -7.908833729e-05
8.03 -0.004753335346 -0.0008286246809 -7.911070751e-05
8.04 -0.004753143971 -0.0008296412067 -7.913307311e-05
8.05 -0.004752952391 -0.0008306576849 -7.91554341e-05
8.06 -0.004752760605 -0.0008316741152 -7.917779048e-05
8.07 -0.004752568612 -0.0008326904977 -7.920014225e-05
8.08 -0.004752376413 -0.0008337068324 -7.92224894e-05
8.09 -0.004752184009 -0.0008347231191 -7.924483193e-05
8.1 -0.004751991398 -0.0008357393579 -7.926716986e-05
8.11 -0.004751798581 -0.0008367555487 -7.928950316e-05
8.12 -0.004751605558 -0.0008377716915 -7.931183185e-05
8.13 -0.00475141233 -0.0008387877863 -7.933415591e-05
8.14 -0.004751218895 -0.000839803833 -7.935647536e-05
8.15 -0.004751025254 -0.0008408198317 -7.937879019e-05
8.16 -0.004750831407 -0.0008418357821 -7.94011004e-05
8.17 -0.004750637355 -0.0008428516844 -7.942340598e-05
8.18 -0.004750443096 -0.0008438675385 -7.944570694e-05
8.19 -0.004750248632 -0.0008448833443 -7.946800328e-05
8.2 -0.004750053961 -0.0008458991019 -7.949029499e-05
8.21 -0.004749859085 -0.0008469148111 -7.951258207e-05
8.22 -0.004749664002 -0.000847930472 -7.953486453e-05
8.23 -0.004749468714 -0.0008489460845 -7.955714236e-05
8.24 -0.00474927322 -0.0008499616486 -7.957941556e-05
8.25 -0.00474907752 -0.0008509771642 -7.960168413e-05
8.26 -0.004748881615 -0.0008519926313 -7.962394807e-05
8.27 -0.004748685503 -0.0008530080499 -7.964620738e-05
8.28 -0.004748489186 -0.00085402342 -7.966846206e-05
8.29 -0.004748292662 -0.0008550387415 -7.96907121e-05
8.3 -0.004748095933 -0.0008560540143 -7.971295751e-05
8.31 -0.004747898999 -0.0008570692385 -7.973519829e-05
8.32 -0.004747701858 -0.000858084414 -7.975743443e-05
8.33 -0.004747504512 -0.0008590995408 -7.977966593e-05
8.34 -0.00474730696 -0.0008601146188 -7.980189279e-05
8.35 -0.004747109202 -0.000861129648 -7.982411502e-05
8.36 -0.004746911239 -0.0008621446284 -7.98463326e-05
8.37 -0.00474671307 -0.0008631595599 -7.986854555e-05
8.38 -0.004746514695 -0.0008641744425 -7.989075385e-05
8.39 -0.004746316114 -0.0008651892761 -7.991295751e-05
8.4 -0.004746117328 -0.0008662040608 -7.993515652e-05
8.41 -0.004745918336 -0.0008672187965 -7.99573509e-05
8.42 -0.004745719139 -0.0008682334832 -7.997954062e-05
8.43 -0.004745519736 -0.0008692481208 -8.000172571e-05
8.44 -0.004745320127 -0.0008702627093 -8.002390614e-05
8.45 -0.004745120313 -0.0008712772486 -8.004608193e-05
8.46 -0.004744920293 -0.0008722917388 -8.006825306e-05
8.47 -0.004744720068 -0.0008733061797 -8.009041955e-05
8.48 -0.004744519637 -0.0008743205714 -8.011258139e-05
8.49 -0.004744319 -0.0008753349138 -8.013473857e-05
8.5 -0.004744118158 -0.000876349207 -8.01568911e-05
8.51 -0.00474391711 -0.0008773634507 -8.017903898e-05
8.52 -0.004743715857 -0.0008783776451 -8.020118221e-05
8.53 -0.004743514399 -0.0008793917901 -8.022332078e-05
8.54 -0.004743312735 -0.0008804058856 -8.024545469e-05
8.55 -0.004743110865 -0.0008814199316 -8.026758395e-05
8.56 -0.00474290879 -0.0008824339281 -8.028970855e-05
8.57 -0.00474270651 -0.0008834478751 -8.031182848e-05
8.58 -0.004742504024 -0.0008844617724 -8.033394376e-05
8.59 -0.004742301332 -0.0008854756202 -8.035605438e-05
8.6 -0.004742098436 -0.0008864894183 -8.037816034e-05
8.61 -0.004741895334 -0.0008875031667 -8.040026164e-05
8.62 -0.004741692026 -0.0008885168653 -8.042235827e-05
8.63 -0.004741488513 -0.0008895305142 -8.044445023e-05
8.64 -0.004741284795 -0.0008905441134 -8.046653754e-05
8.65 -0.004741080872 -0.0008915576626 -8.048862017e-05
8.66 -0.004740876743 -0.0008925711621 -8.051069814e-05
8.67 -0.004740672409 -0.0008935846116 -8.053277144e-05
8.68 -0.004740467869 -0.0008945980112 -8.055484007e-05
8.69 -0.004740263125 -0.0008956113608 -8.057690403e-05
8.7 -0.004740058175 -0.0008966246604 -8.059896333e-05
8.71 -0.004739853019 -0.00089763791 -8.062101795e-05
8.72 -0.004739647659 -0.0008986511095 -8.064306789e-05
8.73 -0.004739442093 -0.000899664259 -8.066511317e-05
8.74 -0.004739236322 -0.0009006773582 -8.068715377e-05
8.75 -0.004739030346 -0.0009016904073 -8.070918969e-05
8.76 -0.004738824164 -0.0009027034062 -8.073122094e-05
8.77 -0.004738617778 -0.0009037163549 -8.075324751e-05
8.78 -0.004738411186 -0.0009047292533 -8.07752694e-05
8.79 -0.004738204389 -0.0009057421014 -8.079728662e-05
8.8 -0.004737997387 -0.0009067548991 -8.081929915e-05
8.81 -0.00473779018 -0.0009077676465 -8.0841307e-05
8.82 -0.004737582768 -0.0009087803434 -8.086331018e-05
8.83 -0.00473737515 -0.0009097929899 -8.088530867e-05
8.84 -0.004737167328 -0.0009108055859 -8.090730247e-05
8.85 -0.0047369593 -0.0009118181314 -8.092929159e-05
8.86 -0.004736751068 -0.0009128306264 -8.095127603e-05
8.87 -0.00473654263 -0.0009138430707 -8.097325578e-05
8.88 -0.004736333987 -0.0009148554645 -8.099523085e-05
8.89 -0.004736125139 -0.0009158678076 -8.101720122e-05
8.9 -0.004735916087 -0.0009168801 -8.103916691e-05
8.91 -0.004735706829 -0.0009178923417 -8.106112791e-05
8.92 -0.004735497366 -0.0009189045326 -8.108308421e-05
8.93 -0.004735287698 -0.0009199166728 -8.110503583e-05
8.94 -0.004735077826 -0.0009209287621 -8.112698275e-05
8.95 -0.004734867748 -0.0009219408006 -8.114892498e-05
8.96 -0.004734657465 -0.0009229527882 -8.117086252e-05
8.97 -0.004734446978 -0.0009239647248 -8.119279536e-05
8.98 -0.004734236285 -0.0009249766105 -8.12147235e-05
8.99 -0.004734025388 -0.0009259884452 -8.123664695e-05
9 -0.004733814286 -0.0009270002289 -8.12585657e-05
9.01 -0.004733602979 -0.0009280119615 -8.128047975e-05
9.02 -0.004733391467 -0.000929023643 -8.13023891e-05
9.03 -0.00473317975 -0.0009300352734 -8.132429375e-05
9.04 -0.004732967828 -0.0009310468526 -8.13461937e-05
9.05 -0.004732755702 -0.0009320583806 -8.136808895e-05
9.06 -0.004732543371 -0.0009330698574 -8.138997949e-05
9.07 -0.004732330835 -0.0009340812829 -8.141186533e-05
9.08 -0.004732118094 -0.0009350926571 -8.143374647e-05
9.09 -0.004731905148 -0.00093610398 -8.145562289e-05
9.1 -0.004731691998 -0.0009371152515 -8.147749462e-05
9.11 -0.004731478643 -0.0009381264716 -8.149936163e-05
9.12 -0.004731265083 -0.0009391376403 -8.152122394e-05
9.13 -0.004731051318 -0.0009401487575 -8.154308153e-05
9.14 -0.004730837349 -0.0009411598231 -8.156493442e-05
9.15 -0.004730623175 -0.0009421708373 -8.158678259e-05
9.16 -0.004730408796 -0.0009431817999 -8.160862605e-05
9.17 -0.004730194213 -0.0009441927108 -8.16304648e-05
9.18 -0.004729979425 -0.0009452035701 -8.165229884e-05
9.19 -0.004729764433 -0.0009462143778 -8.167412816e-05
9.2 -0.004729549235 -0.0009472251337 -8.169595276e-05
9.21 -0.004729333834 -0.0009482358379 -8.171777265e-05
9.22 -0.004729118227 -0.0009492464903 -8.173958782e-05
9.23 -0.004728902416 -0.0009502570909 -8.176139827e-05
9.24 -0.004728686401 -0.0009512676396 -8.1783204e-05
9.25 -0.004728470181 -0.0009522781365 -8.180500502e-05
9.26 -0.004728253756 -0.0009532885814 -8.182680131e-05
9.27 -0.004728037127 -0.0009542989744 -8.184859287e-05
9.28 -0.004727820293 -0.0009553093154 -8.187037972e-05
9.29 -0.004727603255 -0.0009563196044 -8.189216184e-05
9.3 -0.004727386012 -0.0009573298413 -8.191393924e-05
9.31 -0.004727168565 -0.0009583400262 -8.193571191e-05
9.32 -0.004726950913 -0.0009593501589 -8.195747985e-05
9.33 -0.004726733057 -0.0009603602395 -8.197924307e-05
9.34 -0.004726514996 -0.0009613702678 -8.200100156e-05
9.35 -0.004726296731 -0.000962380244 -8.202275532e-05
9.36 -0.004726078262 -0.0009633901679 -8.204450435e-05
9.37 -0.004725859588 -0.0009644000395 -8.206624865e-05
9.38 -0.00472564071 -0.0009654098588 -8.208798821e-05
9.39 -0.004725421627 -0.0009664196257 -8.210972305e-05
9.4 -0.00472520234 -0.0009674293402 -8.213145315e-05
9.41 -0.004724982849 -0.0009684390023 -8.215317851e-05
9.42 -0.004724763153 -0.000969448612 -8.217489914e-05
9.43 -0.004724543253 -0.0009704581691 -8.219661503e-05
9.44 -0.004724323149 -0.0009714676737 -8.221832619e-05
9.45 -0.00472410284 -0.0009724771258 -8.224003261e-05
9.46 -0.004723882327 -0.0009734865252 -8.226173429e-05
9.47 -0.00472366161 -0.000974495872 -8.228343123e-05
9.48 -0.004723440689 -0.0009755051662 -8.230512342e-05
9.49 -0.004723219563 -0.0009765144076 -8.232681088e-05
9.5 -0.004722998233 -0.0009775235964 -8.234849359e-05
9.51 -0.004722776699 -0.0009785327323 -8.237017156e-05
9.52 -0.004722554961 -0.0009795418155 -8.239184479e-05
9.53 -0.004722333018 -0.0009805508458 -8.241351327e-05
9.54 -0.004722110872 -0.0009815598232 -8.2435177e-05
9.55 -0.004721888521 -0.0009825687478 -8.245683599e-05
9.56 -0.004721665966 -0.0009835776193 -8.247849023e-05
9.57 -0.004721443206 -0.000984586438 -8.250013972e-05
9.58 -0.004721220243 -0.0009855952036 -8.252178446e-05
9.59 -0.004720997076 -0.0009866039162 -8.254342445e-05
9.6 -0.004720773704 -0.0009876125757 -8.256505969e-05
9.61 -0.004720550129 -0.0009886211821 -8.258669017e-05
9.62 -0.004720326349 -0.0009896297353 -8.26083159e-05
9.63 -0.004720102365 -0.0009906382354 -8.262993688e-05
9.64 -0.004719878177 -0.0009916466823 -8.26515531e-05
9.65 -0.004719653785 -0.0009926550759 -8.267316457e-05
9.66 -0.00471942919 -0.0009936634162 -8.269477128e-05
9.67 -0.00471920439 -0.0009946717033 -8.271637323e-05
9.68 -0.004718979386 -0.0009956799369 -8.273797043e-05
9.69 -0.004718754178 -0.0009966881173 -8.275956286e-05
9.7 -0.004718528766 -0.0009976962441 -8.278115053e-05
9.71 -0.00471830315 -0.0009987043176 -8.280273345e-05
9.72 -0.004718077331 -0.0009997123375 -8.282431159e-05
9.73 -0.004717851307 -0.001000720304 -8.284588498e-05
9.74 -0.004717625079 -0.001001728217 -8.28674536e-05
9.75 -0.004717398648 -0.001002736076 -8.288901746e-05
9.76 -0.004717172013 -0.001003743882 -8.291057655e-05
9.77 -0.004716945173 -0.001004751634 -8.293213088e-05
9.78 -0.00471671813 -0.001005759332 -8.295368044e-05
9.79 -0.004716490883 -0.001006766977 -8.297522523e-05
9.8 -0.004716263432 -0.001007774568 -8.299676525e-05
9.81 -0.004716035778 -0.001008782105 -8.30183005e-05
9.82 -0.004715807919 -0.001009789588 -8.303983097e-05
9.83 -0.004715579857 -0.001010797018 -8.306135668e-05
9.84 -0.004715351591 -0.001011804393 -8.308287761e-05
9.85 -0.004715123121 -0.001012811715 -8.310439377e-05
9.86 -0.004714894447 -0.001013818982 -8.312590516e-05
9.87 -0.00471466557 -0.001014826196 -8.314741177e-05
9.88 -0.004714436489 -0.001015833356 -8.31689136e-05
9.89 -0.004714207204 -0.001016840461 -8.319041066e-05
9.9 -0.004713977716 -0.001017847513 -8.321190294e-05
9.91 -0.004713748023 -0.00101885451 -8.323339043e-05
9.92 -0.004713518128 -0.001019861453 -8.325487315e-05
9.93 -0.004713288028 -0.001020868342 -8.327635109e-05
9.94 -0.004713057725 -0.001021875177 -8.329782425e-05
9.95 -0.004712827218 -0.001022881957 -8.331929262e-05
9.96 -0.004712596507 -0.001023888684 -8.334075621e-05
9.97 -0.004712365593 -0.001024895356 -8.336221502e-05
9.98 -0.004712134476 -0.001025901973 -8.338366904e-05
9.99 -0.004711903154 -0.001026908536 -8.340511827e-05
10 -0.004711671629 -0.001027915045 -8.342656272e-05
10.01 -0.004711439901 -0.001028921499 -8.344800238e-05
10.02 -0.004711207969 -0.001029927899 -8.346943725e-05
10.03 -0.004710975833 -0.001030934244 -8.349086733e-05
10.04 -0.004710743494 -0.001031940535 -8.351229262e-05
10.05 -0.004710510952 -0.001032946771 -8.353371312e-05
10.06 -0.004710278206 -0.001033952952 -8.355512882e-05
10.07 -0.004710045256 -0.001034959079 -8.357653974e-05
10.08 -0.004709812103 -0.001035965151 -8.359794586e-05
10.09 -0.004709578747 -0.001036971168 -8.361934718e-05
10.1 -0.004709345187 -0.001037977131 -8.364074371e-05
10.11 -0.004709111423 -0.001038983038 -8.366213544e-05
10.12 -0.004708877456 -0.001039988891 -8.368352237e-05
10.13 -0.004708643286 -0.001040994689 -8.370490451e-05
10.14 -0.004708408913 -0.001042000432 -8.372628184e-05
10.15 -0.004708174336 -0.00104300612 -8.374765438e-05
10.16 -0.004707939555 -0.001044011753 -8.376902212e-05
10.17 -0.004707704572 -0.001045017332 -8.379038505e-05
10.18 -0.004707469385 -0.001046022855 -8.381174318e-05
10.19 -0.004707233994 -0.001047028323 -8.38330965e-05
10.2 -0.004706998401 -0.001048033736 -8.385444502e-05
10.21 -0.004706762604 -0.001049039094 -8.387578874e-05
10.22 -0.004706526603 -0.001050044396 -8.389712765e-05
10.23 -0.0047062904 -0.001051049644 -8.391846175e-05
10.24 -0.004706053993 -0.001052054836 -8.393979105e-05
10.25 -0.004705817383 -0.001053059973 -8.396111553e-05
10.26 -0.00470558057 -0.001054065054 -8.39824352e-05
10.27 -0.004705343553 -0.00105507008 -8.400375007e-05
10.28 -0.004705106333 -0.001056075051 -8.402506012e-05
10.29 -0.00470486891 -0.001057079967 -8.404636536e-05
10.3 -0.004704631284 -0.001058084827 -8.406766579e-05
10.31 -0.004704393455 -0.001059089631 -8.40889614e-05
10.32 -0.004704155423 -0.00106009438 -8.41102522e-05
10.33 -0.004703917187 -0.001061099074 -8.413153818e-05
10.34 -0.004703678748 -0.001062103712 -8.415281934e-05
10.35 -0.004703440107 -0.001063108294 -8.417409569e-05
10.36 -0.004703201262 -0.00106411282 -8.419536721e-05
10.37 -0.004702962214 -0.001065117291 -8.421663392e-05
10.38 -0.004702722963 -0.001066121707 -8.423789581e-05
10.39 -0.004702483509 -0.001067126066 -8.425915287e-05
10.4 -0.004702243851 -0.00106813037 -8.428040512e-05
10.41 -0.004702003991 -0.001069134618 -8.430165254e-05
10.42 -0.004701763928 -0.00107013881 -8.432289513e-05
10.43 -0.004701523662 -0.001071142946 -8.434413291e-05
10.44 -0.004701283192 -0.001072147026 -8.436536585e-05
10.45 -0.00470104252 -0.00107315105 -8.438659397e-05
10.46 -0.004700801645 -0.001074155018 -8.440781726e-05
10.47 -0.004700560567 -0.001075158931 -8.442903573e-05
10.48 -0.004700319286 -0.001076162787 -8.445024936e-05
10.49 -0.004700077802 -0.001077166587 -8.447145816e-05
10.5 -0.004699836115 -0.001078170331 -8.449266214e-05
10.51 -0.004699594225 -0.001079174019 -8.451386128e-05
10.52 -0.004699352132 -0.00108017765 -8.453505559e-05
10.53 -0.004699109836 -0.001081181226 -8.455624506e-05
10.54 -0.004698867338 -0.001082184745 -8.45774297e-05
10.55 -0.004698624637 -0.001083188208 -8.459860951e-05
10.56 -0.004698381732 -0.001084191614 -8.461978448e-05
10.57 -0.004698138625 -0.001085194965 -8.464095461e-05
10.58 -0.004697895316 -0.001086198258 -8.46621199e-05
10.59 -0.004697651803 -0.001087201496 -8.468328036e-05
10.6 -0.004697408088 -0.001088204677 -8.470443597e-05
10.61 -0.004697164169 -0.001089207801 -8.472558675e-05
10.62 -0.004696920048 -0.001090210869 -8.474673268e-05
10.63 -0.004696675725 -0.00109121388 -8.476787377e-05
10.64 -0.004696431198 -0.001092216835 -8.478901002e-05
10.65 -0.004696186469 -0.001093219733 -8.481014143e-05
10.66 -0.004695941537 -0.001094222575 -8.483126798e-05
10.67 -0.004695696403 -0.001095225359 -8.48523897e-05
10.68 -0.004695451066 -0.001096228088 -8.487350656e-05
10.69 -0.004695205526 -0.001097230759 -8.489461858e-05
10.7 -0.004694959783 -0.001098233373 -8.491572575e-05
10.71 -0.004694713838 -0.001099235931 -8.493682807e-05
10.72 -0.00469446769 -0.001100238432 -8.495792555e-05
10.73 -0.00469422134 -0.001101240876 -8.497901817e-05
10.74 -0.004693974787 -0.001102243263 -8.500010593e-05
10.75 -0.004693728031 -0.001103245593 -8.502118885e-05
10.76 -0.004693481073 -0.001104247866 -8.504226691e-05
10.77 -0.004693233913 -0.001105250082 -8.506334012e-05
10.78 -0.004692986549 -0.00110625224 -8.508440847e-05
10.79 -0.004692738984 -0.001107254342 -8.510547197e-05
10.8 -0.004692491215 -0.001108256387 -8.51265306e-05
10.81 -0.004692243244 -0.001109258375 -8.514758438e-05
10.82 -0.004691995071 -0.001110260305 -8.516863331e-05
10.83 -0.004691746695 -0.001111262178 -8.518967737e-05
10.84 -0.004691498117 -0.001112263994 -8.521071657e-05
10.85 -0.004691249336 -0.001113265752 -8.523175091e-05
10.86 -0.004691000353 -0.001114267453 -8.525278039e-05
10.87 -0.004690751168 -0.001115269097 -8.5273805e-05
10.88 -0.00469050178 -0.001116270684 -8.529482475e-05
10.89 -0.004690252189 -0.001117272213 -8.531583964e-05
10.9 -0.004690002397 -0.001118273684 -8.533684966e-05
10.91 -0.004689752401 -0.001119275098 -8.535785481e-05
10.92 -0.004689502204 -0.001120276455 -8.537885509e-05
10.93 -0.004689251804 -0.001121277754 -8.539985051e-05
10.94 -0.004689001202 -0.001122278995 -8.542084106e-05
10.95 -0.004688750397 -0.001123280179 -8.544182674e-05
10.96 -0.004688499391 -0.001124281305 -8.546280754e-05
10.97 -0.004688248182 -0.001125282373 -8.548378348e-05
10.98 -0.00468799677 -0.001126283384 -8.550475454e-05
10.99 -0.004687745156 -0.001127284336 -8.552572073e-05
11 -0.004687493341 -0.001128285232 -8.554668204e-05
11.01 -0.004687241322 -0.001129286069 -8.556763848e-05
11.02 -0.004686989102 -0.001130286848 -8.558859004e-05
11.03 -0.00468673668 -0.001131287569 -8.560953673e-05
11.04 -0.004686484055 -0.001132288233 -8.563047853e-05
11.05 -0.004686231228 -0.001133288838 -8.565141546e-05
11.06 -0.004685978199 -0.001134289386 -8.567234751e-05
11.07 -0.004685724967 -0.001135289875 -8.569327468e-05
11.08 -0.004685471534 -0.001136290307 -8.571419697e-05
11.09 -0.004685217898 -0.00113729068 -8.573511437e-05
11.1 -0.004684964061 -0.001138290995 -8.575602689e-05
11.11 -0.004684710021 -0.001139291252 -8.577693453e-05
11.12 -0.004684455779 -0.001140291451 -8.579783728e-05
11.13 -0.004684201335 -0.001141291591 -8.581873515e-05
11.14 -0.004683946689 -0.001142291674 -8.583962813e-05
11.15 -0.004683691841 -0.001143291698 -8.586051623e-05
11.16 -0.004683436791 -0.001144291663 -8.588139943e-05
11.17 -0.004683181539 -0.00114529157 -8.590227775e-05
11.18 -0.004682926085 -0.001146291419 -8.592315117e-05
11.19 -0.004682670428 -0.00114729121 -8.594401971e-05
11.2 -0.00468241457 -0.001148290942 -8.596488335e-05
11.21 -0.00468215851 -0.001149290615 -8.59857421e-05
11.22 -0.004681902248 -0.00115029023 -8.600659596e-05
11.23 -0.004681645784 -0.001151289786 -8.602744492e-05
11.24 -0.004681389118 -0.001152289284 -8.604828899e-05
11.25 -0.00468113225 -0.001153288723 -8.606912816e-05
11.26 -0.00468087518 -0.001154288103 -8.608996243e-05
11.27 -0.004680617909 -0.001155287425 -8.611079181e-05
11.28 -0.004680360435 -0.001156286688 -8.613161629e-05
11.29 -0.00468010276 -0.001157285892 -8.615243587e-05
11.3 -0.004679844883 -0.001158285037 -8.617325055e-05
11.31 -0.004679586803 -0.001159284124 -8.619406032e-05
11.32 -0.004679328523 -0.001160283151 -8.62148652e-05
11.33 -0.00467907004 -0.00116128212 -8.623566517e-05
11.34 -0.004678811355 -0.00116228103 -8.625646024e-05
11.35 -0.004678552469 -0.001163279881 -8.62772504e-05
11.36 -0.004678293381 -0.001164278673 -8.629803566e-05
11.37 -0.004678034091 -0.001165277405 -8.631881601e-05
11.38 -0.004677774599 -0.001166276079 -8.633959146e-05
11.39 -0.004677514906 -0.001167274694 -8.636036199e-05
11.4 -0.004677255011 -0.001168273249 -8.638112762e-05
11.41 -0.004676994914 -0.001169271745 -8.640188834e-05
11.42 -0.004676734616 -0.001170270182 -8.642264415e-05
11.43 -0.004676474116 -0.00117126856 -8.644339504e-05
11.44 -0.004676213414 -0.001172266879 -8.646414102e-05
11.45 -0.004675952511 -0.001173265138 -8.648488209e-05
11.46 -0.004675691405 -0.001174263338 -8.650561825e-05
11.47 -0.004675430099 -0.001175261478 -8.652634949e-05
11.48 -0.00467516859 -0.001176259559 -8.654707582e-05
11.49 -0.004674906881 -0.001177257581 -8.656779722e-05
11.5 -0.004674644969 -0.001178255543 -8.658851372e-05
11.51 -0.004674382856 -0.001179253446 -8.660922529e-05
11.52 -0.004674120541 -0.001180251289 -8.662993194e-05
11.53 -0.004673858025 -0.001181249072 -8.665063367e-05
11.54 -0.004673595308 -0.001182246796 -8.667133049e-05
11.55 -0.004673332388 -0.00118324446 -8.669202238e-05
11.56 -0.004673069268 -0.001184242065 -8.671270935e-05
11.57 -0.004672805946 -0.00118523961 -8.673339139e-05
11.58 -0.004672542422 -0.001186237095 -8.675406851e-05
11.59 -0.004672278697 -0.00118723452 -8.67747407e-05
11.6 -0.00467201477 -0.001188231886 -8.679540797e-05
11.61 -0.004671750642 -0.001189229192 -8.681607031e-05
11.62 -0.004671486313 -0.001190226438 -8.683672773e-05
11.63 -0.004671221782 -0.001191223624 -8.685738021e-05
11.64 -0.00467095705 -0.00119222075 -8.687802777e-05
11.65 -0.004670692116 -0.001193217816 -8.689867039e-05
11.66 -0.004670426981 -0.001194214822 -8.691930809e-05
11.67 -0.004670161645 -0.001195211767 -8.693994085e-05
11.68 -0.004669896107 -0.001196208653 -8.696056868e-05
11.69 -0.004669630368 -0.001197205479 -8.698119158e-05
11.7 -0.004669364428 -0.001198202245 -8.700180954e-05
11.71 -0.004669098286 -0.00119919895 -8.702242256e-05
11.72 -0.004668831943 -0.001200195595 -8.704303065e-05
11.73 -0.004668565399 -0.00120119218 -8.70636338e-05
11.74 -0.004668298653 -0.001202188705 -8.708423202e-05
11.75 -0.004668031707 -0.001203185169 -8.710482529e-05
11.76 -0.004667764559 -0.001204181574 -8.712541363e-05
11.77 -0.00466749721 -0.001205177917 -8.714599702e-05
11.78 -0.004667229659 -0.0012061742 -8.716657547e-05
11.79 -0.004666961908 -0.001207170423 -8.718714898e-05
11.8 -0.004666693955 -0.001208166586 -8.720771755e-05
11.81 -0.004666425801 -0.001209162687 -8.722828118e-05
11.82 -0.004666157446 -0.001210158729 -8.724883985e-05
11.83 -0.00466588889 -0.001211154709 -8.726939359e-05
11.84 -0.004665620132 -0.00121215063 -8.728994237e-05
11.85 -0.004665351174 -0.001213146489 -8.731048621e-05
11.86 -0.004665082014 -0.001214142288 -8.73310251e-05
11.87 -0.004664812654 -0.001215138026 -8.735155904e-05
11.88 -0.004664543092 -0.001216133703 -8.737208804e-05
11.89 -0.004664273329 -0.00121712932 -8.739261208e-05
11.9 -0.004664003365 -0.001218124875 -8.741313117e-05
11.91 -0.004663733201 -0.00121912037 -8.74336453e-05
11.92 -0.004663462835 -0.001220115804 -8.745415449e-05
11.93 -0.004663192268 -0.001221111177 -8.747465872e-05
11.94 -0.0046629215 -0.00122210649 -8.749515799e-05
11.95 -0.004662650531 -0.001223101741 -8.751565231e-05
11.96 -0.004662379361 -0.001224096931 -8.753614167e-05
11.97 -0.004662107991 -0.00122509206 -8.755662607e-05
11.98 -0.004661836419 -0.001226087128 -8.757710552e-05
11.99 -0.004661564646 -0.001227082135 -8.759758e-05
12 -0.004661292673 -0.001228077081 -8.761804953e-05
12.01 -0.004661020498 -0.001229071965 -8.76385141e-05
12.02 -0.004660748123 -0.001230066789 -8.76589737e-05
12.03 -0.004660475547 -0.001231061551 -8.767942834e-05
12.04 -0.00466020277 -0.001232056252 -8.769987802e-05
12.05 -0.004659929792 -0.001233050892 -8.772032273e-05
12.06 -0.004659656613 -0.00123404547 -8.774076247e-05
12.07 -0.004659383234 -0.001235039987 -8.776119726e-05
12.08 -0.004659109653 -0.001236034442 -8.778162707e-05
12.09 -0.004658835872 -0.001237028836 -8.780205192e-05
12.1 -0.00465856189 -0.001238023169 -8.782247179e-05
12.11 -0.004658287708 -0.00123901744 -8.78428867e-05
12.12 -0.004658013324 -0.001240011649 -8.786329664e-05
12.13 -0.00465773874 -0.001241005797 -8.788370161e-05
12.14 -0.004657463955 -0.001241999883 -8.79041016e-05
12.15 -0.00465718897 -0.001242993908 -8.792449662e-05
12.16 -0.004656913784 -0.001243987871 -8.794488667e-05
12.17 -0.004656638397 -0.001244981772 -8.796527174e-05
12.18 -0.004656362809 -0.001245975612 -8.798565184e-05
12.19 -0.004656087021 -0.00124696939 -8.800602696e-05
12.2 -0.004655811032 -0.001247963105 -8.802639711e-05
12.21 -0.004655534842 -0.00124895676 -8.804676228e-05
12.22 -0.004655258452 -0.001249950352 -8.806712246e-05
12.23 -0.004654981861 -0.001250943882 -8.808747767e-05
12.24 -0.00465470507 -0.001251937351 -8.81078279e-05
12.25 -0.004654428078 -0.001252930757 -8.812817315e-05
12.26 -0.004654150886 -0.001253924101 -8.814851341e-05
12.27 -0.004653873493 -0.001254917384 -8.816884869e-05
12.28 -0.004653595899 -0.001255910604 -8.818917899e-05
12.29 -0.004653318105 -0.001256903762 -8.82095043e-05
12.3 -0.004653040111 -0.001257896858 -8.822982463e-05
12.31 -0.004652761916 -0.001258889892 -8.825013997e-05
12.32 -0.00465248352 -0.001259882864 -8.827045033e-05
12.33 -0.004652204924 -0.001260875773 -8.829075569e-05
12.34 -0.004651926128 -0.00126186862 -8.831105607e-05
12.35 -0.004651647131 -0.001262861405 -8.833135145e-05
12.36 -0.004651367934 -0.001263854128 -8.835164185e-05
12.37 -0.004651088536 -0.001264846788 -8.837192726e-05
12.38 -0.004650808938 -0.001265839385 -8.839220767e-05
12.39 -0.004650529139 -0.001266831921 -8.841248309e-05
12.4 -0.00465024914 -0.001267824394 -8.843275351e-05
12.41 -0.004649968941 -0.001268816804 -8.845301894e-05
12.42 -0.004649688542 -0.001269809152 -8.847327938e-05
12.43 -0.004649407942 -0.001270801437 -8.849353482e-05
12.44 -0.004649127141 -0.001271793659 -8.851378526e-05
12.45 -0.004648846141 -0.001272785819 -8.85340307e-05
12.46 -0.00464856494 -0.001273777917 -8.855427115e-05
12.47 -0.004648283539 -0.001274769951 -8.857450659e-05
12.48 -0.004648001938 -0.001275761923 -8.859473704e-05
12.49 -0.004647720136 -0.001276753832 -8.861496248e-05
12.5 -0.004647438134 -0.001277745678 -8.863518292e-05
12.51 -0.004647155932 -0.001278737462 -8.865539835e-05
12.52 -0.00464687353 -0.001279729183 -8.867560879e-05
12.53 -0.004646590928 -0.00128072084 -8.869581421e-05
12.54 -0.004646308125 -0.001281712435 -8.871601464e-05
12.55 -0.004646025122 -0.001282703967 -8.873621005e-05
12.56 -0.004645741919 -0.001283695435 -8.875640046e-05
12.57 -0.004645458516 -0.001284686841 -8.877658586e-05
12.58 -0.004645174913 -0.001285678184 -8.879676625e-05
12.59 -0.00464489111 -0.001286669463 -8.881694163e-05
12.6 -0.004644607107 -0.00128766068 -8.8837112e-05
12.61 -0.004644322903 -0.001288651833 -8.885727736e-05
12.62 -0.0046440385 -0.001289642923 -8.88774377e-05
12.63 -0.004643753896 -0.00129063395 -8.889759304e-05
12.64 -0.004643469092 -0.001291624913 -8.891774335e-05
12.65 -0.004643184089 -0.001292615814 -8.893788866e-05
12.66 -0.004642898885 -0.001293606651 -8.895802894e-05
12.67 -0.004642613481 -0.001294597424 -8.897816422e-05
12.68 -0.004642327878 -0.001295588134 -8.899829447e-05
12.69 -0.004642042074 -0.001296578781 -8.90184197e-05
12.7 -0.00464175607 -0.001297569364 -8.903853992e-05
12.71 -0.004641469867 -0.001298559884 -8.905865512e-05
12.72 -0.004641183463 -0.00129955034 -8.907876529e-05
12.73 -0.00464089686 -0.001300540733 -8.909887045e-05
12.74 -0.004640610056 -0.001301531062 -8.911897058e-05
12.75 -0.004640323053 -0.001302521328 -8.913906568e-05
12.76 -0.00464003585 -0.001303511529 -8.915915577e-05
12.77 -0.004639748447 -0.001304501667 -8.917924083e-05
12.78 -0.004639460844 -0.001305491742 -8.919932086e-05
12.79 -0.004639173042 -0.001306481752 -8.921939587e-05
12.8 -0.004638885039 -0.001307471699 -8.923946584e-05
12.81 -0.004638596837 -0.001308461582 -8.925953079e-05
12.82 -0.004638308435 -0.001309451401 -8.927959072e-05
12.83 -0.004638019833 -0.001310441156 -8.929964561e-05
12.84 -0.004637731031 -0.001311430848 -8.931969547e-05
12.85 -0.00463744203 -0.001312420475 -8.93397403e-05
12.86 -0.004637152829 -0.001313410038 -8.935978009e-05
12.87 -0.004636863428 -0.001314399538 -8.937981485e-05
12.88 -0.004636573827 -0.001315388973 -8.939984458e-05
12.89 -0.004636284027 -0.001316378344 -8.941986928e-05
12.9 -0.004635994027 -0.001317367651 -8.943988893e-05
12.91 -0.004635703827 -0.001318356894 -8.945990355e-05
12.92 -0.004635413428 -0.001319346072 -8.947991314e-05
12.93 -0.004635122829 -0.001320335187 -8.949991768e-05
12.94 -0.00463483203 -0.001321324237 -8.951991719e-05
12.95 -0.004634541032 -0.001322313223 -8.953991165e-05
12.96 -0.004634249834 -0.001323302145 -8.955990108e-05
12.97 -0.004633958437 -0.001324291002 -8.957988546e-05
12.98 -0.00463366684 -0.001325279795 -8.95998648e-05
12.99 -0.004633375043 -0.001326268523 -8.96198391e-05
13 -0.004633083047 -0.001327257187 -8.963980835e-05
13.01 -0.004632790852 -0.001328245786 -8.965977256e-05
13.02 -0.004632498456 -0.001329234321 -8.967973173e-05
13.03 -0.004632205862 -0.001330222792 -8.969968584e-05
13.04 -0.004631913067 -0.001331211197 -8.971963491e-05
13.05 -0.004631620074 -0.001332199539 -8.973957893e-05
13.06 -0.004631326881 -0.001333187815 -8.97595179e-05
13.07 -0.004631033488 -0.001334176027 -8.977945182e-05
13.08 -0.004630739896 -0.001335164174 -8.979938069e-05
13.09 -0.004630446105 -0.001336152256 -8.981930451e-05
13.1 -0.004630152114 -0.001337140274 -8.983922328e-05
13.11 -0.004629857923 -0.001338128227 -8.985913699e-05
13.12 -0.004629563534 -0.001339116115 -8.987904565e-05
13.13 -0.004629268945 -0.001340103938 -8.989894925e-05
13.14 -0.004628974156 -0.001341091696 -8.99188478e-05
13.15 -0.004628679168 -0.001342079389 -8.993874129e-05
13.16 -0.004628383981 -0.001343067017 -8.995862972e-05
13.17 -0.004628088595 -0.00134405458 -8.99785131e-05
13.18 -0.004627793009 -0.001345042078 -8.999839141e-05
13.19 -0.004627497224 -0.001346029511 -9.001826467e-05
13.2 -0.00462720124 -0.001347016879 -9.003813286e-05
13.21 -0.004626905056 -0.001348004182 -9.0057996e-05
13.22 -0.004626608673 -0.001348991419 -9.007785407e-05
13.23 -0.004626312091 -0.001349978592 -9.009770708e-05
13.24 -0.00462601531 -0.001350965699 -9.011755502e-05
13.25 -0.00462571833 -0.001351952741 -9.01373979e-05
13.26 -0.00462542115 -0.001352939717 -9.015723571e-05
13.27 -0.004625123771 -0.001353926628 -9.017706846e-05
13.28 -0.004624826193 -0.001354913474 -9.019689614e-05
13.29 -0.004624528416 -0.001355900254 -9.021671875e-05
13.3 -0.00462423044 -0.001356886969 -9.023653629e-05
13.31 -0.004623932264 -0.001357873619 -9.025634876e-05
13.32 -0.004623633889 -0.001358860203 -9.027615616e-05
13.33 -0.004623335316 -0.001359846721 -9.029595849e-05
13.34 -0.004623036543 -0.001360833174 -9.031575575e-05
13.35 -0.004622737571 -0.001361819561 -9.033554793e-05
13.36 -0.0046224384 -0.001362805883 -9.035533504e-05
13.37 -0.00462213903 -0.001363792138 -9.037511708e-05
13.38 -0.004621839461 -0.001364778329 -9.039489404e-05
13.39 -0.004621539693 -0.001365764453 -9.041466592e-05
13.4 -0.004621239726 -0.001366750512 -9.043443273e-05
13.41 -0.00462093956 -0.001367736505 -9.045419446e-05
13.42 -0.004620639195 -0.001368722432 -9.04739511e-05
13.43 -0.004620338632 -0.001369708293 -9.049370267e-05
13.44 -0.004620037869 -0.001370694088 -9.051344916e-05
13.45 -0.004619736907 -0.001371679817 -9.053319057e-05
13.46 -0.004619435746 -0.001372665481 -9.055292689e-05
13.47 -0.004619134387 -0.001373651078 -9.057265813e-05
13.48 -0.004618832828 -0.001374636609 -9.059238429e-05
13.49 -0.004618531071 -0.001375622074 -9.061210536e-05
13.5 -0.004618229114 -0.001376607473 -9.063182135e-05
13.51 -0.004617926959 -0.001377592806 -9.065153225e-05
13.52 -0.004617624605 -0.001378578073 -9.067123806e-05
13.53 -0.004617322052 -0.001379563274 -9.069093879e-05
13.54 -0.004617019301 -0.001380548408 -9.071063443e-05
13.55 -0.00461671635 -0.001381533476 -9.073032497e-05
13.56 -0.004616413201 -0.001382518478 -9.075001043e-05
13.57 -0.004616109853 -0.001383503414 -9.076969079e-05
13.58 -0.004615806306 -0.001384488283 -9.078936607e-05
13.59 -0.004615502561 -0.001385473085 -9.080903625e-05
13.6 -0.004615198617 -0.001386457822 -9.082870133e-05
13.61 -0.004614894474 -0.001387442491 -9.084836132e-05
13.62 -0.004614590132 -0.001388427095 -9.086801622e-05
13.63 -0.004614285592 -0.001389411632 -9.088766602e-05
13.64 -0.004613980853 -0.001390396102 -9.090731072e-05
13.65 -0.004613675915 -0.001391380505 -9.092695032e-05
13.66 -0.004613370779 -0.001392364842 -9.094658483e-05
13.67 -0.004613065444 -0.001393349113 -9.096621424e-05
13.68 -0.004612759911 -0.001394333316 -9.098583854e-05
13.69 -0.004612454178 -0.001395317453 -9.100545775e-05
13.7 -0.004612148248 -0.001396301523 -9.102507185e-05
13.71 -0.004611842118 -0.001397285527 -9.104468085e-05
13.72 -0.004611535791 -0.001398269463 -9.106428475e-05
13.73 -0.004611229264 -0.001399253333 -9.108388354e-05
13.74 -0.004610922539 -0.001400237136 -9.110347722e-05
13.75 -0.004610615616 -0.001401220872 -9.11230658e-05
13.76 -0.004610308494 -0.001402204541 -9.114264928e-05
13.77 -0.004610001173 -0.001403188142 -9.116222764e-05
13.78 -0.004609693654 -0.001404171677 -9.11818009e-05
13.79 -0.004609385937 -0.001405155145 -9.120136905e-05
13.8 -0.004609078021 -0.001406138546 -9.122093208e-05
13.81 -0.004608769906 -0.00140712188 -9.124049001e-05
13.82 -0.004608461594 -0.001408105146 -9.126004282e-05
13.83 -0.004608153083 -0.001409088345 -9.127959053e-05
13.84 -0.004607844373 -0.001410071477 -9.129913311e-05
13.85 -0.004607535465 -0.001411054542 -9.131867059e-05
13.86 -0.004607226359 -0.00141203754 -9.133820295e-05
13.87 -0.004606917054 -0.00141302047 -9.135773019e-05
13.88 -0.004606607551 -0.001414003333 -9.137725231e-05
13.89 -0.00460629785 -0.001414986128 -9.139676932e-05
13.9 -0.00460598795 -0.001415968856 -9.141628121e-05
13.91 -0.004605677852 -0.001416951517 -9.143578798e-05
13.92 -0.004605367556 -0.00141793411 -9.145528963e-05
13.93 -0.004605057061 -0.001418916636 -9.147478616e-05
13.94 -0.004604746368 -0.001419899094 -9.149427757e-05
13.95 -0.004604435477 -0.001420881484 -9.151376386e-05
13.96 -0.004604124388 -0.001421863807 -9.153324502e-05
13.97 -0.0046038131 -0.001422846062 -9.155272106e-05
13.98 -0.004603501615 -0.00142382825 -9.157219197e-05
13.99 -0.004603189931 -0.00142481037 -9.159165776e-05
14 -0.004602878049 -0.001425792422 -9.161111842e-05
14.01 -0.004602565969 -0.001426774406 -9.163057395e-05
14.02 -0.00460225369 -0.001427756323 -9.165002436e-05
14.03 -0.004601941214 -0.001428738171 -9.166946963e-05
14.04 -0.004601628539 -0.001429719952 -9.168890978e-05
14.05 -0.004601315666 -0.001430701665 -9.17083448e-05
14.06 -0.004601002595 -0.00143168331 -9.172777468e-05
14.07 -0.004600689326 -0.001432664887 -9.174719943e-05
14.08 -0.004600375859 -0.001433646396 -9.176661905e-05
14.09 -0.004600062194 -0.001434627837 -9.178603354e-05
14.1 -0.004599748331 -0.00143560921 -9.180544289e-05
14.11 -0.00459943427 -0.001436590514 -9.18248471e-05
14.12 -0.004599120011 -0.001437571751 -9.184424618e-05
14.13 -0.004598805554 -0.00143855292 -9.186364012e-05
14.14 -0.004598490899 -0.00143953402 -9.188302892e-05
14.15 -0.004598176046 -0.001440515052 -9.190241259e-05
14.16 -0.004597860995 -0.001441496016 -9.192179111e-05
14.17 -0.004597545746 -0.001442476911 -9.19411645e-05
14.18 -0.004597230299 -0.001443457738 -9.196053274e-05
14.19 -0.004596914654 -0.001444438497 -9.197989584e-05
14.2 -0.004596598811 -0.001445419187 -9.19992538e-05
14.21 -0.00459628277 -0.001446399809 -9.201860661e-05
14.22 -0.004595966532 -0.001447380363 -9.203795428e-05
14.23 -0.004595650096 -0.001448360848 -9.205729681e-05
14.24 -0.004595333461 -0.001449341264 -9.207663418e-05
14.25 -0.004595016629 -0.001450321612 -9.209596642e-05
14.26 -0.0045946996 -0.001451301891 -9.21152935e-05
14.27 -0.004594382372 -0.001452282102 -9.213461543e-05
14.28 -0.004594064946 -0.001453262244 -9.215393222e-05
14.29 -0.004593747323 -0.001454242317 -9.217324386e-05
14.3 -0.004593429502 -0.001455222322 -9.219255034e-05
14.31 -0.004593111483 -0.001456202257 -9.221185167e-05
14.32 -0.004592793267 -0.001457182124 -9.223114785e-05
14.33 -0.004592474853 -0.001458161923 -9.225043888e-05
14.34 -0.004592156241 -0.001459141652 -9.226972475e-05
14.35 -0.004591837431 -0.001460121312 -9.228900547e-05
14.36 -0.004591518424 -0.001461100904 -9.230828103e-05
14.37 -0.004591199219 -0.001462080427 -9.232755144e-05
14.38 -0.004590879817 -0.00146305988 -9.234681668e-05
14.39 -0.004590560216 -0.001464039265 -9.236607677e-05
14.4 -0.004590240418 -0.00146501858 -9.23853317e-05
14.41 -0.004589920423 -0.001465997827 -9.240458147e-05
14.42 -0.00458960023 -0.001466977004 -9.242382608e-05
14.43 -0.004589279839 -0.001467956112 -9.244306553e-05
14.44 -0.004588959251 -0.001468935151 -9.246229982e-05
14.45 -0.004588638465 -0.001469914121 -9.248152894e-05
14.46 -0.004588317482 -0.001470893022 -9.25007529e-05
14.47 -0.004587996301 -0.001471871853 -9.251997169e-05
14.48 -0.004587674923 -0.001472850615 -9.253918532e-05
14.49 -0.004587353347 -0.001473829307 -9.255839378e-05
14.5 -0.004587031574 -0.00147480793 -9.257759707e-05
14.51 -0.004586709603 -0.001475786484 -9.25967952e-05
14.52 -0.004586387435 -0.001476764969 -9.261598816e-05
14.53 -0.004586065069 -0.001477743384 -9.263517595e-05
14.54 -0.004585742506 -0.001478721729 -9.265435856e-05
14.55 -0.004585419745 -0.001479700005 -9.267353601e-05
14.56 -0.004585096787 -0.001480678211 -9.269270829e-05
14.57 -0.004584773632 -0.001481656348 -9.271187539e-05
14.58 -0.004584450279 -0.001482634415 -9.273103731e-05
14.59 -0.004584126729 -0.001483612412 -9.275019407e-05
14.6 -0.004583802982 -0.00148459034 -9.276934565e-05
14.61 -0.004583479037 -0.001485568197 -9.278849205e-05
14.62 -0.004583154895 -0.001486545986 -9.280763327e-05
14.63 -0.004582830556 -0.001487523704 -9.282676932e-05
14.64 -0.004582506019 -0.001488501352 -9.284590019e-05
14.65 -0.004582181285 -0.001489478931 -9.286502588e-05
14.66 -0.004581856354 -0.00149045644 -9.288414639e-05
14.67 -0.004581531226 -0.001491433879 -9.290326172e-05
14.68 -0.0045812059 -0.001492411247 -9.292237187e-05
14.69 -0.004580880377 -0.001493388546 -9.294147683e-05
14.7 -0.004580554657 -0.001494365775 -9.296057661e-05
14.71 -0.00458022874 -0.001495342934 -9.297967121e-05
14.72 -0.004579902625 -0.001496320022 -9.299876062e-05
14.73 -0.004579576314 -0.001497297041 -9.301784485e-05
14.74 -0.004579249805 -0.001498273989 -9.303692389e-05
14.75 -0.004578923099 -0.001499250867 -9.305599774e-05
14.76 -0.004578596196 -0.001500227675 -9.30750664e-05
14.77 -0.004578269096 -0.001501204413 -9.309412988e-05
14.78 -0.004577941798 -0.00150218108 -9.311318816e-05
14.79 -0.004577614304 -0.001503157677 -9.313224126e-05
14.8 -0.004577286613 -0.001504134204 -9.315128916e-05
14.81 -0.004576958724 -0.00150511066 -9.317033187e-05
14.82 -0.004576630639 -0.001506087046 -9.318936939e-05
14.83 -0.004576302356 -0.001507063362 -9.320840172e-05
14.84 -0.004575973877 -0.001508039606 -9.322742885e-05
14.85 -0.0045756452 -0.001509015781 -9.324645078e-05
14.86 -0.004575316327 -0.001509991885 -9.326546752e-05
14.87 -0.004574987256 -0.001510967918 -9.328447906e-05
14.88 -0.004574657989 -0.001511943881 -9.33034854e-05
14.89 -0.004574328525 -0.001512919773 -9.332248655e-05
14.9 -0.004573998863 -0.001513895594 -9.33414825e-05
14.91 -0.004573669005 -0.001514871345 -9.336047324e-05
14.92 -0.00457333895 -0.001515847025 -9.337945879e-05
14.93 -0.004573008698 -0.001516822634 -9.339843913e-05
14.94 -0.004572678249 -0.001517798172 -9.341741427e-05
14.95 -0.004572347603 -0.001518773639 -9.34363842e-05
14.96 -0.004572016761 -0.001519749036 -9.345534894e-05
14.97 -0.004571685721 -0.001520724362 -9.347430846e-05
14.98 -0.004571354485 -0.001521699616 -9.349326279e-05
14.99 -0.004571023052 -0.0015226748 -9.35122119e-05
15 -0.004570691422 -0.001523649913 -9.353115581e-05
15.01 -0.004570359596 -0.001524624954 -9.355009451e-05
15.02 -0.004570027572 -0.001525599925 -9.3569028e-05
15.03 -0.004569695352 -0.001526574824 -9.358795628e-05
15.04 -0.004569362936 -0.001527549653 -9.360687935e-05
15.05 -0.004569030322 -0.00152852441 -9.362579721e-05
15.06 -0.004568697512 -0.001529499096 -9.364470985e-05
15.07 -0.004568364505 -0.001530473711 -9.366361729e-05
15.08 -0.004568031301 -0.001531448254 -9.368251951e-05
15.09 -0.004567697901 -0.001532422726 -9.370141651e-05
15.1 -0.004567364304 -0.001533397127 -9.37203083e-05
15.11 -0.004567030511 -0.001534371457 -9.373919487e-05
15.12 -0.00456669652 -0.001535345715 -9.375807623e-05
15.13 -0.004566362334 -0.001536319901 -9.377695237e-05
15.14 -0.00456602795 -0.001537294017 -9.379582329e-05
15.15 -0.00456569337 -0.00153826806 -9.381468899e-05
15.16 -0.004565358594 -0.001539242033 -9.383354947e-05
15.17 -0.004565023621 -0.001540215933 -9.385240473e-05
15.18 -0.004564688451 -0.001541189762 -9.387125476e-05
15.19 -0.004564353085 -0.00154216352 -9.389009958e-05
15.2 -0.004564017522 -0.001543137205 -9.390893917e-05
15.21 -0.004563681763 -0.001544110819 -9.392777354e-05
15.22 -0.004563345808 -0.001545084362 -9.394660268e-05
15.23 -0.004563009656 -0.001546057832 -9.396542659e-05
15.24 -0.004562673307 -0.001547031231 -9.398424528e-05
15.25 -0.004562336762 -0.001548004558 -9.400305875e-05
15.26 -0.004562000021 -0.001548977813 -9.402186698e-05
15.27 -0.004561663083 -0.001549950996 -9.404066999e-05
15.28 -0.004561325949 -0.001550924108 -9.405946776e-05
15.29 -0.004560988618 -0.001551897147 -9.407826031e-05
15.3 -0.004560651091 -0.001552870114 -9.409704762e-05
15.31 -0.004560313368 -0.00155384301 -9.41158297e-05
15.32 -0.004559975449 -0.001554815833 -9.413460655e-05
15.33 -0.004559637333 -0.001555788584 -9.415337816e-05
15.34 -0.00455929902 -0.001556761263 -9.417214454e-05
15.35 -0.004558960512 -0.00155773387 -9.419090569e-05
15.36 -0.004558621807 -0.001558706405 -9.42096616e-05
15.37 -0.004558282906 -0.001559678868 -9.422841227e-05
15.38 -0.004557943809 -0.001560651258 -9.42471577e-05
15.39 -0.004557604515 -0.001561623576 -9.42658979e-05
15.4 -0.004557265025 -0.001562595822 -9.428463285e-05
15.41 -0.004556925339 -0.001563567995 -9.430336257e-05
15.42 -0.004556585457 -0.001564540096 -9.432208704e-05
15.43 -0.004556245378 -0.001565512125 -9.434080628e-05
15.44 -0.004555905104 -0.001566484081 -9.435952027e-05
15.45 -0.004555564633 -0.001567455965 -9.437822901e-05
15.46 -0.004555223966 -0.001568427776 -9.439693252e-05
15.47 -0.004554883103 -0.001569399515 -9.441563077e-05
15.48 -0.004554542044 -0.001570371181 -9.443432379e-05
15.49 -0.004554200789 -0.001571342774 -9.445301155e-05
15.5 -0.004553859337 -0.001572314295 -9.447169407e-05
15.51 -0.00455351769 -0.001573285743 -9.449037134e-05
15.52 -0.004553175847 -0.001574257119 -9.450904337e-05
15.53 -0.004552833807 -0.001575228422 -9.452771014e-05
15.54 -0.004552491572 -0.001576199652 -9.454637166e-05
15.55 -0.00455214914 -0.001577170809 -9.456502793e-05
15.56 -0.004551806512 -0.001578141893 -9.458367895e-05
15.57 -0.004551463689 -0.001579112905 -9.460232472e-05
15.58 -0.004551120669 -0.001580083844 -9.462096523e-05
15.59 -0.004550777454 -0.001581054709 -9.463960049e-05
15.6 -0.004550434042 -0.001582025502 -9.465823049e-05
15.61 -0.004550090435 -0.001582996222 -9.467685524e-05
15.62 -0.004549746632 -0.001583966869 -9.469547472e-05
15.63 -0.004549402633 -0.001584937443 -9.471408896e-05
15.64 -0.004549058438 -0.001585907943 -9.473269793e-05
15.65 -0.004548714047 -0.001586878371 -9.475130165e-05
15.66 -0.00454836946 -0.001587848725 -9.47699001e-05
15.67 -0.004548024677 -0.001588819006 -9.47884933e-05
15.68 -0.004547679699 -0.001589789214 -9.480708123e-05
15.69 -0.004547334524 -0.001590759349 -9.48256639e-05
15.7 -0.004546989154 -0.00159172941 -9.484424131e-05
15.71 -0.004546643588 -0.001592699399 -9.486281345e-05
15.72 -0.004546297827 -0.001593669313 -9.488138033e-05
15.73 -0.004545951869 -0.001594639155 -9.489994194e-05
15.74 -0.004545605716 -0.001595608923 -9.491849829e-05
15.75 -0.004545259367 -0.001596578617 -9.493704937e-05
15.76 -0.004544912823 -0.001597548238 -9.495559518e-05
15.77 -0.004544566082 -0.001598517786 -9.497413572e-05
15.78 -0.004544219146 -0.00159948726 -9.4992671e-05
15.79 -0.004543872014 -0.00160045666 -9.5011201e-05
15.8 -0.004543524687 -0.001601425987 -9.502972573e-05
15.81 -0.004543177164 -0.001602395241 -9.50482452e-05
15.82 -0.004542829445 -0.00160336442 -9.506675938e-05
15.83 -0.004542481531 -0.001604333526 -9.50852683e-05
15.84 -0.004542133421 -0.001605302558 -9.510377194e-05
15.85 -0.004541785116 -0.001606271516 -9.512227031e-05
15.86 -0.004541436615 -0.001607240401 -9.51407634e-05
15.87 -0.004541087918 -0.001608209212 -9.515925121e-05
15.88 -0.004540739026 -0.001609177949 -9.517773375e-05
15.89 -0.004540389938 -0.001610146612 -9.519621101e-05
15.9 -0.004540040655 -0.001611115201 -9.521468299e-05
15.91 -0.004539691176 -0.001612083716 -9.523314969e-05
15.92 -0.004539341502 -0.001613052157 -9.52516111e-05
15.93 -0.004538991632 -0.001614020524 -9.527006724e-05
15.94 -0.004538641567 -0.001614988817 -9.52885181e-05
15.95 -0.004538291306 -0.001615957036 -9.530696367e-05
15.96 -0.00453794085 -0.001616925181 -9.532540396e-05
15.97 -0.004537590199 -0.001617893251 -9.534383897e-05
15.98 -0.004537239352 -0.001618861248 -9.536226869e-05
15.99 -0.004536888309 -0.00161982917 -9.538069312e-05
16 -0.004536537072 -0.001620797018 -9.539911227e-05
16.01 -0.004536185639 -0.001621764792 -9.541752613e-05
16.02 -0.00453583401 -0.001622732491 -9.54359347e-05
16.03 -0.004535482186 -0.001623700116 -9.545433798e-05
16.04 -0.004535130167 -0.001624667667 -9.547273598e-05
16.05 -0.004534777953 -0.001625635143 -9.549112868e-05
16.06 -0.004534425543 -0.001626602545 -9.550951609e-05
16.07 -0.004534072938 -0.001627569872 -9.552789821e-05
16.08 -0.004533720138 -0.001628537125 -9.554627503e-05
16.09 -0.004533367143 -0.001629504303 -9.556464657e-05
16.1 -0.004533013952 -0.001630471407 -9.55830128e-05
16.11 -0.004532660566 -0.001631438436 -9.560137374e-05
16.12 -0.004532306985 -0.00163240539 -9.561972939e-05
16.13 -0.004531953208 -0.00163337227 -9.563807974e-05
16.14 -0.004531599237 -0.001634339075 -9.565642479e-05
16.15 -0.00453124507 -0.001635305806 -9.567476454e-05
16.16 -0.004530890708 -0.001636272461 -9.569309899e-05
16.17 -0.004530536151 -0.001637239042 -9.571142815e-05
16.18 -0.004530181399 -0.001638205548 -9.5729752e-05
16.19 -0.004529826452 -0.001639171979 -9.574807055e-05
16.2 -0.004529471309 -0.001640138335 -9.57663838e-05
16.21 -0.004529115972 -0.001641104616 -9.578469174e-05
16.22 -0.004528760439 -0.001642070823 -9.580299438e-05
16.23 -0.004528404712 -0.001643036954 -9.582129172e-05
16.24 -0.004528048789 -0.00164400301 -9.583958375e-05
16.25 -0.004527692672 -0.001644968991 -9.585787047e-05
16.26 -0.004527336359 -0.001645934898 -9.587615189e-05
16.27 -0.004526979851 -0.001646900729 -9.5894428e-05
16.28 -0.004526623149 -0.001647866484 -9.59126988e-05
16.29 -0.004526266251 -0.001648832165 -9.593096429e-05
16.3 -0.004525909159 -0.001649797771 -9.594922447e-05
16.31 -0.004525551871 -0.001650763301 -9.596747934e-05
16.32 -0.004525194389 -0.001651728756 -9.59857289e-05
16.33 -0.004524836711 -0.001652694135 -9.600397315e-05
16.34 -0.004524478839 -0.001653659439 -9.602221208e-05
16.35 -0.004524120772 -0.001654624668 -9.60404457e-05
16.36 -0.00452376251 -0.001655589822 -9.6058674e-05
16.37 -0.004523404053 -0.0016565549 -9.607689699e-05
16.38 -0.004523045401 -0.001657519902 -9.609511466e-05
16.39 -0.004522686555 -0.001658484829 -9.611332701e-05
16.4 -0.004522327513 -0.001659449681 -9.613153405e-05
16.41 -0.004521968277 -0.001660414456 -9.614973576e-05
16.42 -0.004521608846 -0.001661379157 -9.616793216e-05
16.43 -0.004521249221 -0.001662343781 -9.618612324e-05
16.44 -0.0045208894 -0.00166330833 -9.620430899e-05
16.45 -0.004520529385 -0.001664272804 -9.622248942e-05
16.46 -0.004520169175 -0.001665237201 -9.624066454e-05
16.47 -0.00451980877 -0.001666201523 -9.625883432e-05
16.48 -0.004519448171 -0.001667165769 -9.627699879e-05
16.49 -0.004519087377 -0.001668129939 -9.629515792e-05
16.5 -0.004518726388 -0.001669094033 -9.631331174e-05
16.51 -0.004518365205 -0.001670058051 -9.633146022e-05
16.52 -0.004518003827 -0.001671021994 -9.634960338e-05
16.53 -0.004517642254 -0.00167198586 -9.636774121e-05
16.54 -0.004517280487 -0.001672949651 -9.638587371e-05
16.55 -0.004516918525 -0.001673913365 -9.640400088e-05
16.56 -0.004516556369 -0.001674877004 -9.642212272e-05
16.57 -0.004516194018 -0.001675840566 -9.644023923e-05
16.58 -0.004515831472 -0.001676804052 -9.645835041e-05
16.59 -0.004515468732 -0.001677767462 -9.647645625e-05
16.6 -0.004515105797 -0.001678730796 -9.649455676e-05
16.61 -0.004514742668 -0.001679694053 -9.651265194e-05
16.62 -0.004514379344 -0.001680657235 -9.653074178e-05
16.63 -0.004514015826 -0.00168162034 -9.654882629e-05
16.64 -0.004513652113 -0.001682583369 -9.656690545e-05
16.65 -0.004513288206 -0.001683546321 -9.658497929e-05
16.66 -0.004512924105 -0.001684509197 -9.660304778e-05
16.67 -0.004512559809 -0.001685471997 -9.662111093e-05
16.68 -0.004512195318 -0.00168643472 -9.663916875e-05
16.69 -0.004511830634 -0.001687397366 -9.665722122e-05
16.7 -0.004511465754 -0.001688359937 -9.667526835e-05
16.71 -0.004511100681 -0.00168932243 -9.669331014e-05
16.72 -0.004510735413 -0.001690284847 -9.671134659e-05
16.73 -0.004510369951 -0.001691247188 -9.672937769e-05
16.74 -0.004510004294 -0.001692209451 -9.674740345e-05
16.75 -0.004509638443 -0.001693171639 -9.676542386e-05
16.76 -0.004509272398 -0.001694133749 -9.678343893e-05
16.77 -0.004508906159 -0.001695095783 -9.680144865e-05
16.78 -0.004508539725 -0.00169605774 -9.681945302e-05
16.79 -0.004508173097 -0.00169701962 -9.683745205e-05
16.8 -0.004507806274 -0.001697981423 -9.685544572e-05
16.81 -0.004507439258 -0.001698943149 -9.687343405e-05
16.82 -0.004507072047 -0.001699904799 -9.689141702e-05
16.83 -0.004506704642 -0.001700866372 -9.690939465e-05
16.84 -0.004506337043 -0.001701827867 -9.692736692e-05
16.85 -0.00450596925 -0.001702789286 -9.694533384e-05
16.86 -0.004505601262 -0.001703750627 -9.69632954e-05
16.87 -0.004505233081 -0.001704711892 -9.698125161e-05
16.88 -0.004504864705 -0.001705673079 -9.699920247e-05
16.89 -0.004504496135 -0.00170663419 -9.701714796e-05
16.9 -0.004504127371 -0.001707595223 -9.70350881e-05
16.91 -0.004503758413 -0.001708556179 -9.705302289e-05
16.92 -0.004503389261 -0.001709517058 -9.707095231e-05
16.93 -0.004503019915 -0.001710477859 -9.708887638e-05
16.94 -0.004502650375 -0.001711438584 -9.710679509e-05
16.95 -0.004502280641 -0.001712399231 -9.712470843e-05
16.96 -0.004501910712 -0.0017133598 -9.714261642e-05
16.97 -0.00450154059 -0.001714320292 -9.716051904e-05
16.98 -0.004501170274 -0.001715280707 -9.71784163e-05
16.99 -0.004500799764 -0.001716241045 -9.719630819e-05
17 -0.004500429059 -0.001717201304 -9.721419472e-05
17.01 -0.004500058161 -0.001718161487 -9.723207589e-05
17.02 -0.004499687069 -0.001719121592 -9.724995169e-05
17.03 -0.004499315783 -0.001720081619 -9.726782212e-05
17.04 -0.004498944303 -0.001721041569 -9.728568718e-05
17.05 -0.00449857263 -0.001722001441 -9.730354688e-05
17.06 -0.004498200762 -0.001722961235 -9.732140121e-05
17.07 -0.004497828701 -0.001723920952 -9.733925016e-05
17.08 -0.004497456445 -0.001724880591 -9.735709375e-05
17.09 -0.004497083996 -0.001725840152 -9.737493196e-05
17.1 -0.004496711353 -0.001726799635 -9.739276481e-05
17.11 -0.004496338516 -0.001727759041 -9.741059227e-05
17.12 -0.004495965486 -0.001728718368 -9.742841437e-05
17.13 -0.004495592261 -0.001729677618 -9.744623109e-05
17.14 -0.004495218843 -0.00173063679 -9.746404244e-05
17.15 -0.004494845231 -0.001731595884 -9.748184841e-05
17.16 -0.004494471426 -0.0017325549 -9.7499649e-05
17.17 -0.004494097426 -0.001733513838 -9.751744421e-05
17.18 -0.004493723233 -0.001734472697 -9.753523405e-05
17.19 -0.004493348847 -0.001735431479 -9.755301851e-05
17.2 -0.004492974266 -0.001736390183 -9.757079758e-05
17.21 -0.004492599492 -0.001737348808 -9.758857128e-05
17.22 -0.004492224525 -0.001738307355 -9.760633959e-05
17.23 -0.004491849363 -0.001739265825 -9.762410253e-05
17.24 -0.004491474008 -0.001740224215 -9.764186007e-05
17.25 -0.00449109846 -0.001741182528 -9.765961224e-05
17.26 -0.004490722718 -0.001742140762 -9.767735902e-05
17.27 -0.004490346782 -0.001743098918 -9.769510042e-05
17.28 -0.004489970653 -0.001744056995 -9.771283643e-05
17.29 -0.00448959433 -0.001745014995 -9.773056705e-05
17.3 -0.004489217814 -0.001745972915 -9.774829228e-05
17.31 -0.004488841104 -0.001746930757 -9.776601213e-05
17.32 -0.004488464201 -0.001747888521 -9.778372659e-05
17.33 -0.004488087104 -0.001748846206 -9.780143565e-05
17.34 -0.004487709814 -0.001749803813 -9.781913933e-05
17.35 -0.00448733233 -0.001750761341 -9.783683762e-05
17.36 -0.004486954653 -0.00175171879 -9.785453051e-05
17.37 -0.004486576782 -0.001752676161 -9.787221801e-05
17.38 -0.004486198718 -0.001753633453 -9.788990012e-05
17.39 -0.004485820461 -0.001754590666 -9.790757683e-05
17.4 -0.00448544201 -0.001755547801 -9.792524814e-05
17.41 -0.004485063366 -0.001756504856 -9.794291406e-05
17.42 -0.004484684528 -0.001757461833 -9.796057459e-05
17.43 -0.004484305497 -0.001758418731 -9.797822971e-05
17.44 -0.004483926273 -0.00175937555 -9.799587944e-05
17.45 -0.004483546855 -0.001760332291 -9.801352377e-05
17.46 -0.004483167245 -0.001761288952 -9.80311627e-05
17.47 -0.00448278744 -0.001762245534 -9.804879622e-05
17.48 -0.004482407443 -0.001763202037 -9.806642435e-05
17.49 -0.004482027252 -0.001764158462 -9.808404707e-05
17.5 -0.004481646869 -0.001765114807 -9.810166439e-05
17.51 -0.004481266291 -0.001766071073 -9.811927631e-05
17.52 -0.004480885521 -0.00176702726 -9.813688282e-05
17.53 -0.004480504558 -0.001767983367 -9.815448393e-05
17.54 -0.004480123401 -0.001768939396 -9.817207963e-05
17.55 -0.004479742051 -0.001769895345 -9.818966993e-05
17.56 -0.004479360508 -0.001770851215 -9.820725481e-05
17.57 -0.004478978772 -0.001771807006 -9.822483429e-05
17.58 -0.004478596842 -0.001772762717 -9.824240836e-05
17.59 -0.00447821472 -0.001773718349 -9.825997702e-05
17.6 -0.004477832404 -0.001774673901 -9.827754027e-05
17.61 -0.004477449896 -0.001775629374 -9.829509811e-05
17.62 -0.004477067194 -0.001776584768 -9.831265053e-05
17.63 -0.004476684299 -0.001777540082 -9.833019755e-05
17.64 -0.004476301212 -0.001778495317 -9.834773915e-05
17.65 -0.004475917931 -0.001779450472 -9.836527533e-05
17.66 -0.004475534457 -0.001780405547 -9.83828061e-05
17.67 -0.00447515079 -0.001781360543 -9.840033145e-05
17.68 -0.004474766931 -0.001782315459 -9.841785139e-05
17.69 -0.004474382878 -0.001783270296 -9.843536591e-05
17.7 -0.004473998632 -0.001784225052 -9.845287501e-05
17.71 -0.004473614193 -0.001785179729 -9.847037869e-05
17.72 -0.004473229562 -0.001786134327 -9.848787696e-05
17.73 -0.004472844737 -0.001787088844 -9.85053698e-05
17.74 -0.00447245972 -0.001788043282 -9.852285722e-05
17.75 -0.00447207451 -0.001788997639 -9.854033922e-05
17.76 -0.004471689107 -0.001789951917 -9.855781579e-05
17.77 -0.004471303511 -0.001790906115 -9.857528694e-05
17.78 -0.004470917722 -0.001791860233 -9.859275267e-05
17.79 -0.00447053174 -0.00179281427 -9.861021298e-05
17.8 -0.004470145566 -0.001793768228 -9.862766785e-05
17.81 -0.004469759198 -0.001794722106 -9.86451173e-05
17.82 -0.004469372638 -0.001795675903 -9.866256133e-05
17.83 -0.004468985886 -0.001796629621 -9.867999992e-05
17.84 -0.00446859894 -0.001797583258 -9.869743309e-05
17.85 -0.004468211802 -0.001798536815 -9.871486082e-05
17.86 -0.004467824471 -0.001799490292 -9.873228313e-05
17.87 -0.004467436947 -0.001800443688 -9.874970001e-05
17.88 -0.00446704923 -0.001801397005 -9.876711145e-05
17.89 -0.004466661321 -0.001802350241 -9.878451746e-05
17.9 -0.00446627322 -0.001803303396 -9.880191804e-05
17.91 -0.004465884925 -0.001804256471 -9.881931318e-05
17.92 -0.004465496438 -0.001805209466 -9.883670289e-05
17.93 -0.004465107758 -0.00180616238 -9.885408716e-05
17.94 -0.004464718886 -0.001807115214 -9.887146599e-05
17.95 -0.004464329821 -0.001808067967 -9.888883939e-05
17.96 -0.004463940564 -0.00180902064 -9.890620735e-05
17.97 -0.004463551114 -0.001809973232 -9.892356987e-05
17.98 -0.004463161471 -0.001810925744 -9.894092696e-05
17.99 -0.004462771636 -0.001811878174 -9.89582786e-05
18 -0.004462381609 -0.001812830525 -9.89756248e-05
18.01 -0.004461991388 -0.001813782794 -9.899296556e-05
18.02 -0.004461600976 -0.001814734983 -9.901030088e-05
18.03 -0.004461210371 -0.001815687091 -9.902763075e-05
18.04 -0.004460819573 -0.001816639118 -9.904495518e-05
18.05 -0.004460428583 -0.001817591064 -9.906227416e-05
18.06 -0.004460037401 -0.001818542929 -9.90795877e-05
18.07 -0.004459646026 -0.001819494714 -9.90968958e-05
18.08 -0.004459254458 -0.001820446417 -9.911419844e-05
18.09 -0.004458862699 -0.00182139804 -9.913149564e-05
18.1 -0.004458470747 -0.001822349581 -9.914878739e-05
18.11 -0.004458078602 -0.001823301042 -9.916607369e-05
18.12 -0.004457686266 -0.001824252421 -9.918335454e-05
18.13 -0.004457293737 -0.00182520372 -9.920062994e-05
18.14 -0.004456901015 -0.001826154937 -9.921789989e-05
18.15 -0.004456508101 -0.001827106073 -9.923516438e-05
18.16 -0.004456114995 -0.001828057128 -9.925242342e-05
18.17 -0.004455721697 -0.001829008102 -9.926967701e-05
18.18 -0.004455328207 -0.001829958994 -9.928692514e-05
18.19 -0.004454934524 -0.001830909805 -9.930416782e-05
18.2 -0.004454540649 -0.001831860535 -9.932140504e-05
18.21 -0.004454146582 -0.001832811183 -9.933863681e-05
18.22 -0.004453752322 -0.00183376175 -9.935586312e-05
18.23 -0.004453357871 -0.001834712236 -9.937308397e-05
18.24 -0.004452963227 -0.00183566264 -9.939029936e-05
18.25 -0.004452568391 -0.001836612962 -9.940750929e-05
18.26 -0.004452173363 -0.001837563204 -9.942471376e-05
18.27 -0.004451778142 -0.001838513363 -9.944191277e-05
18.28 -0.00445138273 -0.001839463441 -9.945910631e-05
18.29 -0.004450987126 -0.001840413438 -9.947629439e-05
18.3 -0.004450591329 -0.001841363352 -9.949347701e-05
18.31 -0.004450195341 -0.001842313185 -9.951065417e-05
18.32 -0.00444979916 -0.001843262937 -9.952782586e-05
18.33 -0.004449402787 -0.001844212606 -9.954499208e-05
18.34 -0.004449006222 -0.001845162194 -9.956215284e-05
18.35 -0.004448609466 -0.0018461117 -9.957930813e-05
18.36 -0.004448212517 -0.001847061124 -9.959645795e-05
18.37 -0.004447815376 -0.001848010467 -9.96136023e-05
18.38 -0.004447418044 -0.001848959727 -9.963074119e-05
18.39 -0.004447020519 -0.001849908906 -9.96478746e-05
18.4 -0.004446622802 -0.001850858002 -9.966500254e-05
18.41 -0.004446224894 -0.001851807017 -9.968212501e-05
18.42 -0.004445826793 -0.001852755949 -9.969924201e-05
18.43 -0.004445428501 -0.0018537048 -9.971635353e-05
18.44 -0.004445030017 -0.001854653568 -9.973345958e-05
18.45 -0.004444631341 -0.001855602254 -9.975056016e-05
18.46 -0.004444232473 -0.001856550859 -9.976765525e-05
18.47 -0.004443833413 -0.00185749938 -9.978474488e-05
18.48 -0.004443434162 -0.00185844782 -9.980182902e-05
18.49 -0.004443034718 -0.001859396178 -9.981890769e-05
18.5 -0.004442635083 -0.001860344453 -9.983598088e-05
18.51 -0.004442235256 -0.001861292646 -9.985304859e-05
18.52 -0.004441835237 -0.001862240756 -9.987011082e-05
18.53 -0.004441435027 -0.001863188784 -9.988716756e-05
18.54 -0.004441034624 -0.00186413673 -9.990421883e-05
18.55 -0.00444063403 -0.001865084593 -9.992126461e-05
18.56 -0.004440233245 -0.001866032374 -9.993830491e-05
18.57 -0.004439832267 -0.001866980072 -9.995533973e-05
18.58 -0.004439431098 -0.001867927688 -9.997236906e-05
18.59 -0.004439029738 -0.001868875221 -9.998939291e-05
18.6 -0.004438628185 -0.001869822672 -0.0001000064113
18.61 -0.004438226441 -0.00187077004 -0.0001000234241
18.62 -0.004437824506 -0.001871717325 -0.0001000404315
18.63 -0.004437422379 -0.001872664528 -0.0001000574334
18.64 -0.00443702006 -0.001873611647 -0.0001000744298
18.65 -0.004436617549 -0.001874558684 -0.0001000914208
18.66 -0.004436214847 -0.001875505639 -0.0001001084062
18.67 -0.004435811954 -0.00187645251 -0.0001001253861
18.68 -0.004435408869 -0.001877399299 -0.0001001423606
18.69 -0.004435005592 -0.001878346004 -0.0001001593295
18.7 -0.004434602124 -0.001879292627 -0.000100176293
18.71 -0.004434198465 -0.001880239167 -0.0001001932509
18.72 -0.004433794614 -0.001881185624 -0.0001002102034
18.73 -0.004433390571 -0.001882131998 -0.0001002271504
18.74 -0.004432986337 -0.001883078289 -0.0001002440918
18.75 -0.004432581912 -0.001884024496 -0.0001002610278
18.76 -0.004432177295 -0.001884970621 -0.0001002779583
18.77 -0.004431772487 -0.001885916662 -0.0001002948833
18.78 -0.004431367487 -0.001886862621 -0.0001003118028
18.79 -0.004430962297 -0.001887808496 -0.0001003287167
18.8 -0.004430556914 -0.001888754287 -0.0001003456252
18.81 -0.004430151341 -0.001889699996 -0.0001003625282
18.82 -0.004429745576 -0.001890645621 -0.0001003794257
18.83 -0.004429339619 -0.001891591163 -0.0001003963176
18.84 -0.004428933472 -0.001892536622 -0.0001004132041
18.85 -0.004428527133 -0.001893481997 -0.0001004300851
18.86 -0.004428120603 -0.001894427289 -0.0001004469605
18.87 -0.004427713881 -0.001895372497 -0.0001004638305
18.88 -0.004427306969 -0.001896317622 -0.0001004806949
18.89 -0.004426899865 -0.001897262663 -0.0001004975539
18.9 -0.00442649257 -0.00189820762 -0.0001005144073
18.91 -0.004426085084 -0.001899152494 -0.0001005312552
18.92 -0.004425677406 -0.001900097285 -0.0001005480976
18.93 -0.004425269538 -0.001901041992 -0.0001005649345
18.94 -0.004424861478 -0.001901986615 -0.0001005817659
18.95 -0.004424453227 -0.001902931154 -0.0001005985918
18.96 -0.004424044785 -0.00190387561 -0.0001006154121
18.97 -0.004423636152 -0.001904819982 -0.000100632227
18.98 -0.004423227327 -0.00190576427 -0.0001006490363
18.99 -0.004422818312 -0.001906708474 -0.0001006658401
19 -0.004422409106 -0.001907652594 -0.0001006826384
19.01 -0.004421999708 -0.001908596631 -0.0001006994312
19.02 -0.00442159012 -0.001909540583 -0.0001007162185
19.03 -0.00442118034 -0.001910484452 -0.0001007330002
19.04 -0.00442077037 -0.001911428236 -0.0001007497765
19.05 -0.004420360208 -0.001912371936 -0.0001007665472
19.06 -0.004419949856 -0.001913315553 -0.0001007833124
19.07 -0.004419539312 -0.001914259085 -0.000100800072
19.08 -0.004419128578 -0.001915202533 -0.0001008168262
19.09 -0.004418717653 -0.001916145897 -0.0001008335748
19.1 -0.004418306537 -0.001917089177 -0.0001008503179
19.11 -0.004417895229 -0.001918032373 -0.0001008670555
19.12 -0.004417483731 -0.001918975484 -0.0001008837875
19.13 -0.004417072042 -0.001919918511 -0.000100900514
19.14 -0.004416660163 -0.001920861453 -0.000100917235
19.15 -0.004416248092 -0.001921804312 -0.0001009339505
19.16 -0.004415835831 -0.001922747086 -0.0001009506604
19.17 -0.004415423378 -0.001923689775 -0.0001009673649
19.18 -0.004415010735 -0.00192463238 -0.0001009840637
19.19 -0.004414597901 -0.001925574901 -0.0001010007571
19.2 -0.004414184877 -0.001926517337 -0.0001010174449
19.21 -0.004413771661 -0.001927459688 -0.0001010341272
19.22 -0.004413358255 -0.001928401955 -0.000101050804
19.23 -0.004412944658 -0.001929344138 -0.0001010674752
19.24 -0.004412530871 -0.001930286235 -0.0001010841409
19.25 -0.004412116893 -0.001931228248 -0.0001011008011
19.26 -0.004411702724 -0.001932170176 -0.0001011174557
19.27 -0.004411288364 -0.00193311202 -0.0001011341048
19.28 -0.004410873814 -0.001934053779 -0.0001011507483
19.29 -0.004410459073 -0.001934995453 -0.0001011673863
19.3 -0.004410044141 -0.001935937042 -0.0001011840188
19.31 -0.004409629019 -0.001936878546 -0.0001012006457
19.32 -0.004409213706 -0.001937819966 -0.0001012172671
19.33 -0.004408798203 -0.0019387613 -0.000101233883
19.34 -0.004408382509 -0.001939702549 -0.0001012504933
19.35 -0.004407966625 -0.001940643714 -0.0001012670981
19.36 -0.00440755055 -0.001941584793 -0.0001012836973
19.37 -0.004407134284 -0.001942525788 -0.000101300291
19.38 -0.004406717828 -0.001943466697 -0.0001013168791
19.39 -0.004406301182 -0.001944407521 -0.0001013334617
19.4 -0.004405884345 -0.00194534826 -0.0001013500388
19.41 -0.004405467317 -0.001946288914 -0.0001013666103
19.42 -0.004405050099 -0.001947229483 -0.0001013831762
19.43 -0.004404632691 -0.001948169966 -0.0001013997366
19.44 -0.004404215092 -0.001949110364 -0.0001014162915
19.45 -0.004403797303 -0.001950050677 -0.0001014328408
19.46 -0.004403379324 -0.001950990905 -0.0001014493846
19.47 -0.004402961154 -0.001951931047 -0.0001014659228
19.48 -0.004402542793 -0.001952871103 -0.0001014824555
19.49 -0.004402124243 -0.001953811075 -0.0001014989826
19.5 -0.004401705502 -0.00195475096 -0.0001015155041
19.51 -0.004401286571 -0.001955690761 -0.0001015320201
19.52 -0.004400867449 -0.001956630475 -0.0001015485306
19.53 -0.004400448137 -0.001957570105 -0.0001015650355
19.54 -0.004400028635 -0.001958509648 -0.0001015815348
19.55 -0.004399608942 -0.001959449106 -0.0001015980286
19.56 -0.00439918906 -0.001960388478 -0.0001016145168
19.57 -0.004398768987 -0.001961327765 -0.0001016309994
19.58 -0.004398348724 -0.001962266966 -0.0001016474765
19.59 -0.004397928271 -0.001963206081 -0.0001016639481
19.6 -0.004397507627 -0.00196414511 -0.0001016804141
19.61 -0.004397086793 -0.001965084054 -0.0001016968745
19.62 -0.00439666577 -0.001966022911 -0.0001017133294
19.63 -0.004396244556 -0.001966961683 -0.0001017297787
19.64 -0.004395823152 -0.001967900369 -0.0001017462224
19.65 -0.004395401558 -0.001968838969 -0.0001017626606
19.66 -0.004394979773 -0.001969777483 -0.0001017790932
19.67 -0.004394557799 -0.00197071591 -0.0001017955202
19.68 -0.004394135634 -0.001971654252 -0.0001018119417
19.69 -0.00439371328 -0.001972592508 -0.0001018283576
19.7 -0.004393290736 -0.001973530678 -0.0001018447679
19.71 -0.004392868001 -0.001974468761 -0.0001018611727
19.72 -0.004392445076 -0.001975406759 -0.0001018775719
19.73 -0.004392021962 -0.00197634467 -0.0001018939655
19.74 -0.004391598657 -0.001977282495 -0.0001019103536
19.75 -0.004391175163 -0.001978220233 -0.0001019267361
19.76 -0.004390751479 -0.001979157886 -0.000101943113
19.77 -0.004390327604 -0.001980095452 -0.0001019594843
19.78 -0.00438990354 -0.001981032931 -0.0001019758501
19.79 -0.004389479286 -0.001981970325 -0.0001019922103
19.8 -0.004389054842 -0.001982907631 -0.0001020085649
19.81 -0.004388630208 -0.001983844852 -0.000102024914
19.82 -0.004388205384 -0.001984781986 -0.0001020412574
19.83 -0.00438778037 -0.001985719033 -0.0001020575953
19.84 -0.004387355167 -0.001986655994 -0.0001020739276
19.85 -0.004386929774 -0.001987592868 -0.0001020902544
19.86 -0.004386504191 -0.001988529656 -0.0001021065755
19.87 -0.004386078418 -0.001989466357 -0.0001021228911
19.88 -0.004385652455 -0.001990402971 -0.0001021392011
19.89 -0.004385226303 -0.001991339499 -0.0001021555055
19.9 -0.004384799961 -0.00199227594 -0.0001021718043
19.91 -0.004384373429 -0.001993212294 -0.0001021880976
19.92 -0.004383946707 -0.001994148561 -0.0001022043852
19.93 -0.004383519796 -0.001995084741 -0.0001022206673
19.94 -0.004383092695 -0.001996020835 -0.0001022369438
19.95 -0.004382665404 -0.001996956841 -0.0001022532147
19.96 -0.004382237924 -0.001997892761 -0.00010226948
19.97 -0.004381810254 -0.001998828594 -0.0001022857398
19.98 -0.004381382395 -0.00199976434 -0.0001023019939
19.99 -0.004380954345 -0.002000699998 -0.0001023182425
20 -0.004380526107 -0.00200163557 -0.0001023344854
20.01 -0.004380097678 -0.002002571055 -0.0001023507228
20.02 -0.00437966906 -0.002003506452 -0.0001023669546
20.03 -0.004379240253 -0.002004441762 -0.0001023831808
20.04 -0.004378811256 -0.002005376986 -0.0001023994014
20.05 -0.00437838207 -0.002006312121 -0.0001024156164
20.06 -0.004377952694 -0.00200724717 -0.0001024318258
20.07 -0.004377523128 -0.002008182131 -0.0001024480296
20.08 -0.004377093373 -0.002009117005 -0.0001024642279
20.09 -0.004376663429 -0.002010051792 -0.0001024804205
20.1 -0.004376233295 -0.002010986491 -0.0001024966075
20.11 -0.004375802972 -0.002011921103 -0.0001025127889
20.12 -0.004375372459 -0.002012855628 -0.0001025289648
20.13 -0.004374941757 -0.002013790065 -0.000102545135
20.14 -0.004374510866 -0.002014724414 -0.0001025612996
20.15 -0.004374079785 -0.002015658676 -0.0001025774587
20.16 -0.004373648514 -0.002016592851 -0.0001025936121
20.17 -0.004373217055 -0.002017526937 -0.0001026097599
20.18 -0.004372785406 -0.002018460936 -0.0001026259022
20.19 -0.004372353568 -0.002019394848 -0.0001026420388
20.2 -0.00437192154 -0.002020328672 -0.0001026581698
20.21 -0.004371489324 -0.002021262408 -0.0001026742952
20.22 -0.004371056918 -0.002022196056 -0.000102690415
20.23 -0.004370624322 -0.002023129617 -0.0001027065292
20.24 -0.004370191538 -0.002024063089 -0.0001027226378
20.25 -0.004369758564 -0.002024996474 -0.0001027387408
20.26 -0.004369325401 -0.002025929771 -0.0001027548382
20.27 -0.004368892049 -0.00202686298 -0.0001027709299
20.28 -0.004368458508 -0.002027796101 -0.0001027870161
20.29 -0.004368024777 -0.002028729134 -0.0001028030967
20.3 -0.004367590858 -0.002029662079 -0.0001028191716
20.31 -0.004367156749 -0.002030594936 -0.0001028352409
20.32 -0.004366722451 -0.002031527705 -0.0001028513046
20.33 -0.004366287964 -0.002032460386 -0.0001028673627
20.34 -0.004365853288 -0.002033392979 -0.0001028834152
20.35 -0.004365418423 -0.002034325483 -0.0001028994621
20.36 -0.004364983369 -0.0020352579 -0.0001029155033
20.37 -0.004364548125 -0.002036190228 -0.000102931539
20.38 -0.004364112693 -0.002037122468 -0.000102947569
20.39 -0.004363677072 -0.002038054619 -0.0001029635934
20.4 -0.004363241262 -0.002038986682 -0.0001029796122
20.41 -0.004362805262 -0.002039918657 -0.0001029956253
20.42 -0.004362369074 -0.002040850544 -0.0001030116329
20.43 -0.004361932697 -0.002041782342 -0.0001030276348
20.44 -0.004361496131 -0.002042714051 -0.0001030436311
20.45 -0.004361059376 -0.002043645672 -0.0001030596217
20.46 -0.004360622432 -0.002044577205 -0.0001030756068
20.47 -0.004360185299 -0.002045508649 -0.0001030915862
20.48 -0.004359747977 -0.002046440004 -0.00010310756
20.49 -0.004359310467 -0.002047371271 -0.0001031235282
20.5 -0.004358872767 -0.002048302449 -0.0001031394908
20.51 -0.004358434879 -0.002049233538 -0.0001031554477
20.52 -0.004357996802 -0.002050164539 -0.000103171399
20.53 -0.004357558536 -0.002051095451 -0.0001031873447
20.54 -0.004357120081 -0.002052026274 -0.0001032032847
20.55 -0.004356681438 -0.002052957009 -0.0001032192191
20.56 -0.004356242606 -0.002053887655 -0.0001032351479
20.57 -0.004355803585 -0.002054818211 -0.000103251071
20.58 -0.004355364375 -0.002055748679 -0.0001032669886
20.59 -0.004354924976 -0.002056679058 -0.0001032829004
20.6 -0.004354485389 -0.002057609348 -0.0001032988067
20.61 -0.004354045614 -0.002058539549 -0.0001033147073
20.62 -0.004353605649 -0.002059469661 -0.0001033306023
20.63 -0.004353165496 -0.002060399683 -0.0001033464916
20.64 -0.004352725154 -0.002061329617 -0.0001033623754
20.65 -0.004352284624 -0.002062259462 -0.0001033782534
20.66 -0.004351843905 -0.002063189217 -0.0001033941259
20.67 -0.004351402997 -0.002064118884 -0.0001034099927
20.68 -0.004350961901 -0.002065048461 -0.0001034258538
20.69 -0.004350520616 -0.002065977948 -0.0001034417094
20.7 -0.004350079143 -0.002066907347 -0.0001034575592
20.71 -0.004349637481 -0.002067836656 -0.0001034734035
20.72 -0.004349195631 -0.002068765876 -0.0001034892421
20.73 -0.004348753592 -0.002069695006 -0.000103505075
20.74 -0.004348311364 -0.002070624048 -0.0001035209023
20.75 -0.004347868949 -0.002071552999 -0.000103536724
20.76 -0.004347426344 -0.002072481861 -0.00010355254
20.77 -0.004346983552 -0.002073410634 -0.0001035683504
20.78 -0.00434654057 -0.002074339317 -0.0001035841551
20.79 -0.004346097401 -0.002075267911 -0.0001035999542
20.8 -0.004345654043 -0.002076196415 -0.0001036157477
20.81 -0.004345210496 -0.002077124829 -0.0001036315354
20.82 -0.004344766762 -0.002078053154 -0.0001036473176
20.83 -0.004344322839 -0.002078981389 -0.0001036630941
20.84 -0.004343878727 -0.002079909534 -0.0001036788649
20.85 -0.004343434427 -0.002080837589 -0.0001036946301
20.86 -0.004342989939 -0.002081765555 -0.0001037103896
20.87 -0.004342545263 -0.002082693431 -0.0001037261435
20.88 -0.004342100398 -0.002083621217 -0.0001037418917
20.89 -0.004341655345 -0.002084548913 -0.0001037576343
20.9 -0.004341210104 -0.002085476519 -0.0001037733712
20.91 -0.004340764675 -0.002086404036 -0.0001037891025
20.92 -0.004340319057 -0.002087331462 -0.0001038048281
20.93 -0.004339873251 -0.002088258798 -0.0001038205481
20.94 -0.004339427257 -0.002089186044 -0.0001038362623
20.95 -0.004338981075 -0.0020901132 -0.000103851971
20.96 -0.004338534705 -0.002091040267 -0.000103867674
20.97 -0.004338088146 -0.002091967242 -0.0001038833713
20.98 -0.004337641399 -0.002092894128 -0.0001038990629
20.99 -0.004337194465 -0.002093820924 -0.0001039147489
21 -0.004336747342 -0.002094747629 -0.0001039304292
21.01 -0.004336300031 -0.002095674244 -0.0001039461039
21.02 -0.004335852532 -0.002096600769 -0.0001039617729
21.03 -0.004335404845 -0.002097527203 -0.0001039774363
21.04 -0.004334956969 -0.002098453547 -0.0001039930939
21.05 -0.004334508906 -0.002099379801 -0.0001040087459
21.06 -0.004334060655 -0.002100305964 -0.0001040243923
21.07 -0.004333612216 -0.002101232037 -0.000104040033
21.08 -0.004333163589 -0.002102158019 -0.000104055668
21.09 -0.004332714774 -0.002103083911 -0.0001040712973
21.1 -0.004332265771 -0.002104009712 -0.000104086921
21.11 -0.00433181658 -0.002104935423 -0.000104102539
21.12 -0.004331367201 -0.002105861043 -0.0001041181513
21.13 -0.004330917634 -0.002106786573 -0.000104133758
21.14 -0.004330467879 -0.002107712011 -0.000104149359
21.15 -0.004330017937 -0.002108637359 -0.0001041649543
21.16 -0.004329567806 -0.002109562617 -0.0001041805439
21.17 -0.004329117488 -0.002110487783 -0.0001041961279
21.18 -0.004328666982 -0.002111412859 -0.0001042117062
21.19 -0.004328216288 -0.002112337844 -0.0001042272788
21.2 -0.004327765406 -0.002113262738 -0.0001042428457
21.21 -0.004327314336 -0.002114187541 -0.000104258407
21.22 -0.004326863079 -0.002115112253 -0.0001042739626
21.23 -0.004326411634 -0.002116036874 -0.0001042895125
21.24 -0.004325960001 -0.002116961404 -0.0001043050567
21.25 -0.004325508181 -0.002117885843 -0.0001043205953
21.26 -0.004325056172 -0.002118810192 -0.0001043361281
21.27 -0.004324603976 -0.002119734449 -0.0001043516553
21.28 -0.004324151593 -0.002120658615 -0.0001043671768
21.29 -0.004323699021 -0.002121582689 -0.0001043826926
21.3 -0.004323246263 -0.002122506673 -0.0001043982028
21.31 -0.004322793316 -0.002123430565 -0.0001044137072
21.32 -0.004322340182 -0.002124354366 -0.000104429206
21.33 -0.00432188686 -0.002125278076 -0.0001044446991
21.34 -0.004321433351 -0.002126201695 -0.0001044601865
21.35 -0.004320979654 -0.002127125222 -0.0001044756682
21.36 -0.004320525769 -0.002128048658 -0.0001044911442
21.37 -0.004320071697 -0.002128972002 -0.0001045066145
21.38 -0.004319617437 -0.002129895255 -0.0001045220792
21.39 -0.00431916299 -0.002130818417 -0.0001045375381
21.4 -0.004318708356 -0.002131741487 -0.0001045529914
21.41 -0.004318253533 -0.002132664465 -0.000104568439
21.42 -0.004317798524 -0.002133587352 -0.0001045838809
21.43 -0.004317343327 -0.002134510148 -0.000104599317
21.44 -0.004316887942 -0.002135432851 -0.0001046147475
21.45 -0.00431643237 -0.002136355463 -0.0001046301723
21.46 -0.004315976611 -0.002137277984 -0.0001046455914
21.47 -0.004315520664 -0.002138200412 -0.0001046610048
21.48 -0.00431506453 -0.002139122749 -0.0001046764126
21.49 -0.004314608209 -0.002140044994 -0.0001046918146
21.5 -0.0043141517 -0.002140967148 -0.0001047072109
21.51 -0.004313695004 -0.002141889209 -0.0001047226015
21.52 -0.004313238121 -0.002142811179 -0.0001047379864
21.53 -0.00431278105 -0.002143733056 -0.0001047533656
21.54 -0.004312323792 -0.002144654842 -0.0001047687392
21.55 -0.004311866346 -0.002145576536 -0.000104784107
21.56 -0.004311408714 -0.002146498137 -0.0001047994691
21.57 -0.004310950894 -0.002147419647 -0.0001048148255
21.58 -0.004310492887 -0.002148341065 -0.0001048301762
21.59 -0.004310034693 -0.00214926239 -0.0001048455212
21.6 -0.004309576311 -0.002150183624 -0.0001048608605
21.61 -0.004309117743 -0.002151104765 -0.0001048761941
21.62 -0.004308658987 -0.002152025814 -0.000104891522
21.63 -0.004308200044 -0.002152946771 -0.0001049068442
21.64 -0.004307740914 -0.002153867635 -0.0001049221607
21.65 -0.004307281597 -0.002154788407 -0.0001049374714
21.66 -0.004306822092 -0.002155709087 -0.0001049527765
21.67 -0.004306362401 -0.002156629675 -0.0001049680758
21.68 -0.004305902522 -0.00215755017 -0.0001049833695
21.69 -0.004305442457 -0.002158470573 -0.0001049986574
21.7 -0.004304982204 -0.002159390883 -0.0001050139396
21.71 -0.004304521764 -0.002160311101 -0.0001050292161
21.72 -0.004304061138 -0.002161231226 -0.0001050444869
21.73 -0.004303600324 -0.002162151259 -0.000105059752
21.74 -0.004303139324 -0.002163071199 -0.0001050750113
21.75 -0.004302678136 -0.002163991047 -0.000105090265
21.76 -0.004302216761 -0.002164910802 -0.0001051055129
21.77 -0.0043017552 -0.002165830464 -0.0001051207551
21.78 -0.004301293451 -0.002166750034 -0.0001051359916
21.79 -0.004300831516 -0.002167669511 -0.0001051512224
21.8 -0.004300369394 -0.002168588895 -0.0001051664475
21.81 -0.004299907085 -0.002169508186 -0.0001051816668
21.82 -0.004299444589 -0.002170427384 -0.0001051968804
21.83 -0.004298981906 -0.00217134649 -0.0001052120883
21.84 -0.004298519036 -0.002172265503 -0.0001052272905
21.85 -0.00429805598 -0.002173184422 -0.0001052424869
21.86 -0.004297592736 -0.002174103249 -0.0001052576776
21.87 -0.004297129306 -0.002175021983 -0.0001052728627
21.88 -0.004296665689 -0.002175940624 -0.0001052880419
21.89 -0.004296201886 -0.002176859172 -0.0001053032155
21.9 -0.004295737895 -0.002177777626 -0.0001053183833
21.91 -0.004295273718 -0.002178695988 -0.0001053335454
21.92 -0.004294809355 -0.002179614256 -0.0001053487018
21.93 -0.004294344804 -0.002180532432 -0.0001053638524
21.94 -0.004293880067 -0.002181450514 -0.0001053789973
21.95 -0.004293415143 -0.002182368503 -0.0001053941365
21.96 -0.004292950033 -0.002183286398 -0.00010540927
21.97 -0.004292484735 -0.0021842042 -0.0001054243977
21.98 -0.004292019252 -0.002185121909 -0.0001054395197
21.99 -0.004291553581 -0.002186039525 -0.000105454636
