# t ax ay az
0 -0.003420707583 -0.003420707583 -0.0001194471866
0.01 -0.003419954229 -0.003421429225 -0.0001194723848
0.02 -0.003419200737 -0.003422150702 -0.0001194975759
0.03 -0.003418447106 -0.003422872013 -0.0001195227599
0.04 -0.003417693336 -0.003423593159 -0.0001195479367
0.05 -0.003416939427 -0.003424314139 -0.0001195731064
0.06 -0.003416185379 -0.003425034953 -0.000119598269
0.07 -0.003415431192 -0.003425755601 -0.0001196234244
0.08 -0.003414676866 -0.003426476084 -0.0001196485726
0.09 -0.003413922402 -0.0034271964 -0.0001196737137
0.1 -0.003413167799 -0.003427916551 -0.0001196988477
0.11 -0.003412413057 -0.003428636536 -0.0001197239745
0.12 -0.003411658176 -0.003429356356 -0.0001197490941
0.13 -0.003410903157 -0.003430076009 -0.0001197742067
0.14 -0.003410147999 -0.003430795497 -0.000119799312
0.15 -0.003409392703 -0.003431514818 -0.0001198244102
0.16 -0.003408637268 -0.003432233974 -0.0001198495013
0.17 -0.003407881695 -0.003432952963 -0.0001198745852
0.18 -0.003407125983 -0.003433671787 -0.0001198996619
0.19 -0.003406370133 -0.003434390445 -0.0001199247315
0.2 -0.003405614144 -0.003435108937 -0.0001199497939
0.21 -0.003404858017 -0.003435827262 -0.0001199748492
0.22 -0.003404101752 -0.003436545422 -0.0001199998973
0.23 -0.003403345348 -0.003437263416 -0.0001200249383
0.24 -0.003402588806 -0.003437981243 -0.0001200499721
0.25 -0.003401832126 -0.003438698904 -0.0001200749987
0.26 -0.003401075308 -0.0034394164 -0.0001201000182
0.27 -0.003400318351 -0.003440133729 -0.0001201250305
0.28 -0.003399561257 -0.003440850892 -0.0001201500356
0.29 -0.003398804024 -0.003441567889 -0.0001201750336
0.3 -0.003398046654 -0.003442284719 -0.0001202000244
0.31 -0.003397289145 -0.003443001384 -0.000120225008
0.32 -0.003396531498 -0.003443717882 -0.0001202499845
0.33 -0.003395773714 -0.003444434214 -0.0001202749538
0.34 -0.003395015791 -0.003445150379 -0.0001202999159
0.35 -0.003394257731 -0.003445866379 -0.0001203248709
0.36 -0.003393499532 -0.003446582212 -0.0001203498187
0.37 -0.003392741196 -0.003447297878 -0.0001203747593
0.38 -0.003391982723 -0.003448013379 -0.0001203996928
0.39 -0.003391224111 -0.003448728713 -0.0001204246191
0.4 -0.003390465362 -0.00344944388 -0.0001204495382
0.41 -0.003389706475 -0.003450158881 -0.0001204744501
0.42 -0.00338894745 -0.003450873716 -0.0001204993548
0.43 -0.003388188288 -0.003451588384 -0.0001205242524
0.44 -0.003387428989 -0.003452302886 -0.0001205491428
0.45 -0.003386669551 -0.003453017222 -0.000120574026
0.46 -0.003385909977 -0.00345373139 -0.000120598902
0.47 -0.003385150264 -0.003454445393 -0.0001206237709
0.48 -0.003384390415 -0.003455159229 -0.0001206486325
0.49 -0.003383630428 -0.003455872898 -0.000120673487
0.5 -0.003382870304 -0.0034565864 -0.0001206983343
0.51 -0.003382110042 -0.003457299736 -0.0001207231744
0.52 -0.003381349643 -0.003458012906 -0.0001207480073
0.53 -0.003380589107 -0.003458725909 -0.0001207728331
0.54 -0.003379828433 -0.003459438745 -0.0001207976516
0.55 -0.003379067623 -0.003460151414 -0.000120822463
0.56 -0.003378306675 -0.003460863917 -0.0001208472672
0.57 -0.00337754559 -0.003461576253 -0.0001208720642
0.58 -0.003376784368 -0.003462288422 -0.0001208968539
0.59 -0.003376023009 -0.003463000425 -0.0001209216365
0.6 -0.003375261513 -0.003463712261 -0.000120946412
0.61 -0.00337449988 -0.00346442393 -0.0001209711802
0.62 -0.003373738111 -0.003465135432 -0.0001209959412
0.63 -0.003372976204 -0.003465846767 -0.000121020695
0.64 -0.00337221416 -0.003466557936 -0.0001210454416
0.65 -0.00337145198 -0.003467268938 -0.000121070181
0.66 -0.003370689662 -0.003467979772 -0.0001210949133
0.67 -0.003369927208 -0.00346869044 -0.0001211196383
0.68 -0.003369164617 -0.003469400941 -0.0001211443561
0.69 -0.00336840189 -0.003470111275 -0.0001211690668
0.7 -0.003367639026 -0.003470821442 -0.0001211937702
0.71 -0.003366876025 -0.003471531442 -0.0001212184664
0.72 -0.003366112888 -0.003472241276 -0.0001212431554
0.73 -0.003365349614 -0.003472950942 -0.0001212678372
0.74 -0.003364586203 -0.003473660441 -0.0001212925118
0.75 -0.003363822656 -0.003474369773 -0.0001213171792
0.76 -0.003363058973 -0.003475078938 -0.0001213418394
0.77 -0.003362295153 -0.003475787936 -0.0001213664924
0.78 -0.003361531197 -0.003476496766 -0.0001213911382
0.79 -0.003360767105 -0.00347720543 -0.0001214157767
0.8 -0.003360002876 -0.003477913926 -0.0001214404081
0.81 -0.003359238511 -0.003478622256 -0.0001214650322
0.82 -0.003358474009 -0.003479330418 -0.0001214896491
0.83 -0.003357709372 -0.003480038413 -0.0001215142589
0.84 -0.003356944598 -0.00348074624 -0.0001215388613
0.85 -0.003356179688 -0.003481453901 -0.0001215634566
0.86 -0.003355414642 -0.003482161394 -0.0001215880447
0.87 -0.00335464946 -0.00348286872 -0.0001216126255
0.88 -0.003353884142 -0.003483575879 -0.0001216371992
0.89 -0.003353118688 -0.00348428287 -0.0001216617656
0.9 -0.003352353098 -0.003484989694 -0.0001216863248
0.91 -0.003351587372 -0.00348569635 -0.0001217108767
0.92 -0.00335082151 -0.00348640284 -0.0001217354215
0.93 -0.003350055512 -0.003487109162 -0.000121759959
0.94 -0.003349289378 -0.003487815316 -0.0001217844893
0.95 -0.003348523109 -0.003488521303 -0.0001218090124
0.96 -0.003347756704 -0.003489227123 -0.0001218335282
0.97 -0.003346990163 -0.003489932775 -0.0001218580368
0.98 -0.003346223486 -0.003490638259 -0.0001218825382
0.99 -0.003345456674 -0.003491343576 -0.0001219070324
1 -0.003344689726 -0.003492048726 -0.0001219315193
1.01 -0.003343922642 -0.003492753708 -0.000121955999
1.02 -0.003343155423 -0.003493458523 -0.0001219804715
1.03 -0.003342388069 -0.00349416317 -0.0001220049368
1.04 -0.003341620579 -0.003494867649 -0.0001220293948
1.05 -0.003340852953 -0.003495571961 -0.0001220538456
1.06 -0.003340085192 -0.003496276105 -0.0001220782891
1.07 -0.003339317296 -0.003496980081 -0.0001221027254
1.08 -0.003338549265 -0.00349768389 -0.0001221271545
1.09 -0.003337781098 -0.003498387531 -0.0001221515763
1.1 -0.003337012795 -0.003499091004 -0.0001221759909
1.11 -0.003336244358 -0.00349979431 -0.0001222003983
1.12 -0.003335475785 -0.003500497448 -0.0001222247984
1.13 -0.003334707077 -0.003501200418 -0.0001222491913
1.14 -0.003333938235 -0.00350190322 -0.0001222735769
1.15 -0.003333169256 -0.003502605855 -0.0001222979553
1.16 -0.003332400143 -0.003503308322 -0.0001223223264
1.17 -0.003331630895 -0.003504010621 -0.0001223466904
1.18 -0.003330861512 -0.003504712752 -0.000122371047
1.19 -0.003330091994 -0.003505414715 -0.0001223953964
1.2 -0.003329322341 -0.00350611651 -0.0001224197386
1.21 -0.003328552553 -0.003506818137 -0.0001224440735
1.22 -0.00332778263 -0.003507519597 -0.0001224684012
1.23 -0.003327012572 -0.003508220888 -0.0001224927216
1.24 -0.00332624238 -0.003508922012 -0.0001225170348
1.25 -0.003325472052 -0.003509622967 -0.0001225413407
1.26 -0.00332470159 -0.003510323755 -0.0001225656394
1.27 -0.003323930994 -0.003511024374 -0.0001225899308
1.28 -0.003323160263 -0.003511724826 -0.000122614215
1.29 -0.003322389397 -0.003512425109 -0.0001226384919
1.3 -0.003321618396 -0.003513125225 -0.0001226627615
1.31 -0.003320847261 -0.003513825172 -0.0001226870239
1.32 -0.003320075991 -0.003514524951 -0.000122711279
1.33 -0.003319304587 -0.003515224562 -0.0001227355269
1.34 -0.003318533049 -0.003515924005 -0.0001227597675
1.35 -0.003317761376 -0.003516623279 -0.0001227840009
1.36 -0.003316989569 -0.003517322386 -0.000122808227
1.37 -0.003316217627 -0.003518021324 -0.0001228324458
1.38 -0.003315445551 -0.003518720094 -0.0001228566574
1.39 -0.003314673341 -0.003519418696 -0.0001228808617
1.4 -0.003313900996 -0.003520117129 -0.0001229050588
1.41 -0.003313128518 -0.003520815395 -0.0001229292485
1.42 -0.003312355905 -0.003521513492 -0.0001229534311
1.43 -0.003311583158 -0.00352221142 -0.0001229776063
1.44 -0.003310810277 -0.00352290918 -0.0001230017743
1.45 -0.003310037261 -0.003523606772 -0.000123025935
1.46 -0.003309264112 -0.003524304196 -0.0001230500884
1.47 -0.003308490829 -0.003525001451 -0.0001230742346
1.48 -0.003307717412 -0.003525698538 -0.0001230983735
1.49 -0.003306943861 -0.003526395456 -0.0001231225051
1.5 -0.003306170176 -0.003527092206 -0.0001231466295
1.51 -0.003305396357 -0.003527788787 -0.0001231707466
1.52 -0.003304622404 -0.0035284852 -0.0001231948564
1.53 -0.003303848318 -0.003529181445 -0.0001232189589
1.54 -0.003303074098 -0.003529877521 -0.0001232430542
1.55 -0.003302299744 -0.003530573428 -0.0001232671421
1.56 -0.003301525256 -0.003531269167 -0.0001232912228
1.57 -0.003300750635 -0.003531964737 -0.0001233152962
1.58 -0.00329997588 -0.003532660139 -0.0001233393624
1.59 -0.003299200991 -0.003533355372 -0.0001233634212
1.6 -0.003298425969 -0.003534050436 -0.0001233874728
1.61 -0.003297650813 -0.003534745332 -0.0001234115171
1.62 -0.003296875524 -0.003535440059 -0.0001234355541
1.63 -0.003296100102 -0.003536134617 -0.0001234595838
1.64 -0.003295324546 -0.003536829007 -0.0001234836063
1.65 -0.003294548857 -0.003537523228 -0.0001235076214
1.66 -0.003293773034 -0.00353821728 -0.0001235316293
1.67 -0.003292997078 -0.003538911163 -0.0001235556299
1.68 -0.003292220989 -0.003539604878 -0.0001235796232
1.69 -0.003291444766 -0.003540298424 -0.0001236036092
1.7 -0.003290668411 -0.003540991801 -0.0001236275879
1.71 -0.003289891922 -0.003541685009 -0.0001236515593
1.72 -0.0032891153 -0.003542378049 -0.0001236755234
1.73 -0.003288338545 -0.003543070919 -0.0001236994802
1.74 -0.003287561656 -0.003543763621 -0.0001237234298
1.75 -0.003286784635 -0.003544456154 -0.000123747372
1.76 -0.003286007481 -0.003545148517 -0.000123771307
1.77 -0.003285230194 -0.003545840712 -0.0001237952346
1.78 -0.003284452774 -0.003546532738 -0.000123819155
1.79 -0.003283675221 -0.003547224595 -0.000123843068
1.8 -0.003282897535 -0.003547916283 -0.0001238669738
1.81 -0.003282119716 -0.003548607802 -0.0001238908722
1.82 -0.003281341765 -0.003549299152 -0.0001239147634
1.83 -0.00328056368 -0.003549990333 -0.0001239386472
1.84 -0.003279785463 -0.003550681344 -0.0001239625238
1.85 -0.003279007114 -0.003551372187 -0.000123986393
1.86 -0.003278228631 -0.00355206286 -0.0001240102549
1.87 -0.003277450016 -0.003552753365 -0.0001240341096
1.88 -0.003276671269 -0.0035534437 -0.0001240579569
1.89 -0.003275892389 -0.003554133866 -0.0001240817969
1.9 -0.003275113376 -0.003554823863 -0.0001241056296
1.91 -0.003274334231 -0.003555513691 -0.0001241294551
1.92 -0.003273554954 -0.00355620335 -0.0001241532731
1.93 -0.003272775544 -0.003556892839 -0.0001241770839
1.94 -0.003271996001 -0.003557582159 -0.0001242008874
1.95 -0.003271216327 -0.00355827131 -0.0001242246836
1.96 -0.00327043652 -0.003558960291 -0.0001242484724
1.97 -0.00326965658 -0.003559649103 -0.000124272254
1.98 -0.003268876509 -0.003560337746 -0.0001242960282
1.99 -0.003268096305 -0.00356102622 -0.0001243197951
2 -0.003267315969 -0.003561714524 -0.0001243435547
2.01 -0.003266535501 -0.003562402659 -0.0001243673069
2.02 -0.003265754901 -0.003563090624 -0.0001243910519
2.03 -0.003264974169 -0.00356377842 -0.0001244147895
2.04 -0.003264193305 -0.003564466047 -0.0001244385198
2.05 -0.003263412308 -0.003565153504 -0.0001244622428
2.06 -0.00326263118 -0.003565840791 -0.0001244859585
2.07 -0.00326184992 -0.00356652791 -0.0001245096669
2.08 -0.003261068528 -0.003567214858 -0.0001245333679
2.09 -0.003260287004 -0.003567901637 -0.0001245570616
2.1 -0.003259505348 -0.003568588247 -0.000124580748
2.11 -0.003258723561 -0.003569274687 -0.000124604427
2.12 -0.003257941641 -0.003569960957 -0.0001246280987
2.13 -0.00325715959 -0.003570647058 -0.0001246517631
2.14 -0.003256377408 -0.003571332989 -0.0001246754202
2.15 -0.003255595093 -0.003572018751 -0.0001246990699
2.16 -0.003254812647 -0.003572704343 -0.0001247227124
2.17 -0.00325403007 -0.003573389765 -0.0001247463474
2.18 -0.00325324736 -0.003574075018 -0.0001247699752
2.19 -0.00325246452 -0.003574760101 -0.0001247935956
2.2 -0.003251681548 -0.003575445014 -0.0001248172087
2.21 -0.003250898444 -0.003576129757 -0.0001248408144
2.22 -0.003250115209 -0.003576814331 -0.0001248644128
2.23 -0.003249331842 -0.003577498735 -0.0001248880039
2.24 -0.003248548345 -0.003578182969 -0.0001249115876
2.25 -0.003247764716 -0.003578867033 -0.000124935164
2.26 -0.003246980955 -0.003579550928 -0.0001249587331
2.27 -0.003246197064 -0.003580234652 -0.0001249822948
2.28 -0.003245413041 -0.003580918207 -0.0001250058492
2.29 -0.003244628887 -0.003581601592 -0.0001250293962
2.3 -0.003243844602 -0.003582284807 -0.0001250529359
2.31 -0.003243060185 -0.003582967852 -0.0001250764683
2.32 -0.003242275638 -0.003583650727 -0.0001250999933
2.33 -0.00324149096 -0.003584333432 -0.000125123511
2.34 -0.00324070615 -0.003585015967 -0.0001251470213
2.35 -0.00323992121 -0.003585698333 -0.0001251705243
2.36 -0.003239136139 -0.003586380528 -0.0001251940199
2.37 -0.003238350937 -0.003587062553 -0.0001252175082
2.38 -0.003237565604 -0.003587744408 -0.0001252409891
2.39 -0.00323678014 -0.003588426093 -0.0001252644627
2.4 -0.003235994545 -0.003589107608 -0.0001252879289
2.41 -0.00323520882 -0.003589788953 -0.0001253113878
2.42 -0.003234422963 -0.003590470128 -0.0001253348393
2.43 -0.003233636977 -0.003591151132 -0.0001253582835
2.44 -0.003232850859 -0.003591831967 -0.0001253817203
2.45 -0.003232064611 -0.003592512631 -0.0001254051498
2.46 -0.003231278232 -0.003593193125 -0.0001254285719
2.47 -0.003230491723 -0.003593873449 -0.0001254519867
2.48 -0.003229705083 -0.003594553603 -0.0001254753941
2.49 -0.003228918313 -0.003595233587 -0.0001254987941
2.5 -0.003228131412 -0.0035959134 -0.0001255221868
2.51 -0.003227344381 -0.003596593043 -0.0001255455721
2.52 -0.003226557219 -0.003597272515 -0.0001255689501
2.53 -0.003225769927 -0.003597951818 -0.0001255923207
2.54 -0.003224982505 -0.00359863095 -0.0001256156839
2.55 -0.003224194952 -0.003599309911 -0.0001256390398
2.56 -0.00322340727 -0.003599988703 -0.0001256623883
2.57 -0.003222619457 -0.003600667323 -0.0001256857295
2.58 -0.003221831513 -0.003601345774 -0.0001257090632
2.59 -0.00322104344 -0.003602024054 -0.0001257323896
2.6 -0.003220255237 -0.003602702164 -0.0001257557087
2.61 -0.003219466903 -0.003603380103 -0.0001257790204
2.62 -0.003218678439 -0.003604057872 -0.0001258023247
2.63 -0.003217889846 -0.00360473547 -0.0001258256216
2.64 -0.003217101122 -0.003605412897 -0.0001258489112
2.65 -0.003216312269 -0.003606090155 -0.0001258721934
2.66 -0.003215523285 -0.003606767241 -0.0001258954682
2.67 -0.003214734172 -0.003607444157 -0.0001259187357
2.68 -0.003213944929 -0.003608120903 -0.0001259419957
2.69 -0.003213155556 -0.003608797478 -0.0001259652485
2.7 -0.003212366053 -0.003609473882 -0.0001259884938
2.71 -0.003211576421 -0.003610150116 -0.0001260117317
2.72 -0.003210786659 -0.003610826179 -0.0001260349623
2.73 -0.003209996767 -0.003611502071 -0.0001260581855
2.74 -0.003209206745 -0.003612177793 -0.0001260814013
2.75 -0.003208416594 -0.003612853344 -0.0001261046098
2.76 -0.003207626314 -0.003613528724 -0.0001261278108
2.77 -0.003206835904 -0.003614203934 -0.0001261510045
2.78 -0.003206045364 -0.003614878972 -0.0001261741908
2.79 -0.003205254695 -0.00361555384 -0.0001261973697
2.8 -0.003204463897 -0.003616228538 -0.0001262205412
2.81 -0.003203672969 -0.003616903064 -0.0001262437054
2.82 -0.003202881911 -0.00361757742 -0.0001262668621
2.83 -0.003202090725 -0.003618251604 -0.0001262900115
2.84 -0.003201299409 -0.003618925618 -0.0001263131535
2.85 -0.003200507964 -0.003619599461 -0.0001263362881
2.86 -0.003199716389 -0.003620273133 -0.0001263594153
2.87 -0.003198924686 -0.003620946634 -0.0001263825351
2.88 -0.003198132853 -0.003621619965 -0.0001264056475
2.89 -0.003197340891 -0.003622293124 -0.0001264287525
2.9 -0.0031965488 -0.003622966112 -0.0001264518502
2.91 -0.003195756581 -0.003623638929 -0.0001264749404
2.92 -0.003194964232 -0.003624311576 -0.0001264980233
2.93 -0.003194171754 -0.003624984051 -0.0001265210987
2.94 -0.003193379147 -0.003625656355 -0.0001265441668
2.95 -0.003192586411 -0.003626328489 -0.0001265672275
2.96 -0.003191793546 -0.003627000451 -0.0001265902807
2.97 -0.003191000553 -0.003627672242 -0.0001266133266
2.98 -0.00319020743 -0.003628343862 -0.0001266363651
2.99 -0.003189414179 -0.003629015311 -0.0001266593962
3 -0.003188620799 -0.003629686588 -0.0001266824198
3.01 -0.003187827291 -0.003630357695 -0.0001267054361
3.02 -0.003187033654 -0.00363102863 -0.000126728445
3.03 -0.003186239888 -0.003631699394 -0.0001267514464
3.04 -0.003185445993 -0.003632369987 -0.0001267744405
3.05 -0.00318465197 -0.003633040409 -0.0001267974272
3.06 -0.003183857819 -0.003633710659 -0.0001268204064
3.07 -0.003183063539 -0.003634380739 -0.0001268433783
3.08 -0.00318226913 -0.003635050647 -0.0001268663427
3.09 -0.003181474593 -0.003635720383 -0.0001268892997
3.1 -0.003180679928 -0.003636389948 -0.0001269122494
3.11 -0.003179885134 -0.003637059342 -0.0001269351916
3.12 -0.003179090212 -0.003637728565 -0.0001269581264
3.13 -0.003178295161 -0.003638397616 -0.0001269810538
3.14 -0.003177499983 -0.003639066496 -0.0001270039737
3.15 -0.003176704676 -0.003639735204 -0.0001270268863
3.16 -0.003175909241 -0.003640403741 -0.0001270497915
3.17 -0.003175113678 -0.003641072107 -0.0001270726892
3.18 -0.003174317986 -0.003641740301 -0.0001270955795
3.19 -0.003173522167 -0.003642408324 -0.0001271184624
3.2 -0.003172726219 -0.003643076175 -0.0001271413379
3.21 -0.003171930144 -0.003643743855 -0.000127164206
3.22 -0.00317113394 -0.003644411363 -0.0001271870667
3.23 -0.003170337609 -0.003645078699 -0.0001272099199
3.24 -0.003169541149 -0.003645745864 -0.0001272327657
3.25 -0.003168744562 -0.003646412858 -0.0001272556041
3.26 -0.003167947847 -0.00364707968 -0.0001272784351
3.27 -0.003167151004 -0.00364774633 -0.0001273012586
3.28 -0.003166354033 -0.003648412808 -0.0001273240747
3.29 -0.003165556935 -0.003649079115 -0.0001273468834
3.3 -0.003164759709 -0.003649745251 -0.0001273696847
3.31 -0.003163962355 -0.003650411214 -0.0001273924786
3.32 -0.003163164873 -0.003651077006 -0.000127415265
3.33 -0.003162367264 -0.003651742626 -0.000127438044
3.34 -0.003161569528 -0.003652408075 -0.0001274608155
3.35 -0.003160771663 -0.003653073351 -0.0001274835797
3.36 -0.003159973671 -0.003653738456 -0.0001275063364
3.37 -0.003159175552 -0.003654403389 -0.0001275290857
3.38 -0.003158377306 -0.003655068151 -0.0001275518275
3.39 -0.003157578931 -0.00365573274 -0.0001275745619
3.4 -0.00315678043 -0.003656397158 -0.0001275972889
3.41 -0.003155981801 -0.003657061403 -0.0001276200085
3.42 -0.003155183045 -0.003657725477 -0.0001276427206
3.43 -0.003154384162 -0.003658389379 -0.0001276654252
3.44 -0.003153585151 -0.003659053109 -0.0001276881225
3.45 -0.003152786013 -0.003659716668 -0.0001277108123
3.46 -0.003151986748 -0.003660380054 -0.0001277334946
3.47 -0.003151187356 -0.003661043268 -0.0001277561696
3.48 -0.003150387837 -0.00366170631 -0.000127778837
3.49 -0.003149588191 -0.003662369181 -0.0001278014971
3.5 -0.003148788417 -0.003663031879 -0.0001278241497
3.51 -0.003147988517 -0.003663694405 -0.0001278467949
3.52 -0.00314718849 -0.003664356759 -0.0001278694326
3.53 -0.003146388336 -0.003665018942 -0.0001278920628
3.54 -0.003145588055 -0.003665680952 -0.0001279146857
3.55 -0.003144787647 -0.00366634279 -0.0001279373011
3.56 -0.003143987112 -0.003667004455 -0.000127959909
3.57 -0.00314318645 -0.003667665949 -0.0001279825095
3.58 -0.003142385662 -0.003668327271 -0.0001280051025
3.59 -0.003141584747 -0.00366898842 -0.0001280276881
3.6 -0.003140783705 -0.003669649397 -0.0001280502663
3.61 -0.003139982537 -0.003670310202 -0.000128072837
3.62 -0.003139181242 -0.003670970835 -0.0001280954002
3.63 -0.00313837982 -0.003671631295 -0.000128117956
3.64 -0.003137578272 -0.003672291584 -0.0001281405043
3.65 -0.003136776597 -0.0036729517 -0.0001281630452
3.66 -0.003135974796 -0.003673611643 -0.0001281855786
3.67 -0.003135172868 -0.003674271415 -0.0001282081046
3.68 -0.003134370814 -0.003674931014 -0.0001282306231
3.69 -0.003133568634 -0.003675590441 -0.0001282531342
3.7 -0.003132766327 -0.003676249695 -0.0001282756378
3.71 -0.003131963894 -0.003676908777 -0.0001282981339
3.72 -0.003131161335 -0.003677567687 -0.0001283206226
3.73 -0.003130358649 -0.003678226424 -0.0001283431039
3.74 -0.003129555837 -0.003678884989 -0.0001283655776
3.75 -0.003128752899 -0.003679543381 -0.0001283880439
3.76 -0.003127949835 -0.003680201601 -0.0001284105028
3.77 -0.003127146645 -0.003680859648 -0.0001284329542
3.78 -0.003126343328 -0.003681517523 -0.0001284553981
3.79 -0.003125539886 -0.003682175225 -0.0001284778345
3.8 -0.003124736318 -0.003682832755 -0.0001285002635
3.81 -0.003123932623 -0.003683490113 -0.000128522685
3.82 -0.003123128803 -0.003684147297 -0.0001285450991
3.83 -0.003122324857 -0.003684804309 -0.0001285675057
3.84 -0.003121520785 -0.003685461149 -0.0001285899048
3.85 -0.003120716587 -0.003686117816 -0.0001286122964
3.86 -0.003119912263 -0.00368677431 -0.0001286346806
3.87 -0.003119107814 -0.003687430632 -0.0001286570573
3.88 -0.003118303238 -0.003688086781 -0.0001286794265
3.89 -0.003117498538 -0.003688742757 -0.0001287017883
3.9 -0.003116693711 -0.003689398561 -0.0001287241426
3.91 -0.003115888759 -0.003690054192 -0.0001287464894
3.92 -0.003115083681 -0.00369070965 -0.0001287688287
3.93 -0.003114278478 -0.003691364935 -0.0001287911606
3.94 -0.003113473149 -0.003692020048 -0.000128813485
3.95 -0.003112667694 -0.003692674988 -0.0001288358019
3.96 -0.003111862114 -0.003693329755 -0.0001288581113
3.97 -0.003111056409 -0.003693984349 -0.0001288804133
3.98 -0.003110250578 -0.00369463877 -0.0001289027077
3.99 -0.003109444622 -0.003695293019 -0.0001289249947
4 -0.003108638541 -0.003695947094 -0.0001289472742
4.01 -0.003107832334 -0.003696600997 -0.0001289695462
4.02 -0.003107026002 -0.003697254727 -0.0001289918108
4.03 -0.003106219545 -0.003697908284 -0.0001290140678
4.04 -0.003105412963 -0.003698561668 -0.0001290363174
4.05 -0.003104606255 -0.003699214879 -0.0001290585595
4.06 -0.003103799423 -0.003699867917 -0.0001290807941
4.07 -0.003102992465 -0.003700520782 -0.0001291030212
4.08 -0.003102185382 -0.003701173474 -0.0001291252408
4.09 -0.003101378175 -0.003701825993 -0.000129147453
4.1 -0.003100570842 -0.003702478339 -0.0001291696576
4.11 -0.003099763384 -0.003703130512 -0.0001291918548
4.12 -0.003098955802 -0.003703782512 -0.0001292140445
4.13 -0.003098148094 -0.003704434339 -0.0001292362266
4.14 -0.003097340262 -0.003705085992 -0.0001292584013
4.15 -0.003096532305 -0.003705737473 -0.0001292805685
4.16 -0.003095724223 -0.00370638878 -0.0001293027282
4.17 -0.003094916016 -0.003707039914 -0.0001293248804
4.18 -0.003094107685 -0.003707690875 -0.0001293470251
4.19 -0.003093299228 -0.003708341663 -0.0001293691623
4.2 -0.003092490648 -0.003708992278 -0.000129391292
4.21 -0.003091681942 -0.003709642719 -0.0001294134142
4.22 -0.003090873113 -0.003710292988 -0.0001294355289
4.23 -0.003090064158 -0.003710943082 -0.0001294576362
4.24 -0.003089255079 -0.003711593004 -0.0001294797359
4.25 -0.003088445876 -0.003712242752 -0.0001295018281
4.26 -0.003087636548 -0.003712892327 -0.0001295239128
4.27 -0.003086827096 -0.003713541729 -0.00012954599
4.28 -0.003086017519 -0.003714190957 -0.0001295680597
4.29 -0.003085207818 -0.003714840012 -0.0001295901219
4.3 -0.003084397993 -0.003715488894 -0.0001296121766
4.31 -0.003083588043 -0.003716137602 -0.0001296342238
4.32 -0.003082777969 -0.003716786137 -0.0001296562635
4.33 -0.003081967771 -0.003717434498 -0.0001296782956
4.34 -0.003081157449 -0.003718082686 -0.0001297003203
4.35 -0.003080347003 -0.003718730701 -0.0001297223375
4.36 -0.003079536432 -0.003719378541 -0.0001297443471
4.37 -0.003078725738 -0.003720026209 -0.0001297663492
4.38 -0.003077914919 -0.003720673703 -0.0001297883439
4.39 -0.003077103977 -0.003721321023 -0.000129810331
4.4 -0.00307629291 -0.00372196817 -0.0001298323106
4.41 -0.00307548172 -0.003722615143 -0.0001298542827
4.42 -0.003074670406 -0.003723261943 -0.0001298762472
4.43 -0.003073858968 -0.003723908569 -0.0001298982043
4.44 -0.003073047406 -0.003724555022 -0.0001299201538
4.45 -0.00307223572 -0.003725201301 -0.0001299420959
4.46 -0.00307142391 -0.003725847406 -0.0001299640304
4.47 -0.003070611977 -0.003726493337 -0.0001299859573
4.48 -0.00306979992 -0.003727139095 -0.0001300078768
4.49 -0.00306898774 -0.003727784679 -0.0001300297888
4.5 -0.003068175435 -0.00372843009 -0.0001300516932
4.51 -0.003067363008 -0.003729075326 -0.0001300735901
4.52 -0.003066550456 -0.003729720389 -0.0001300954795
4.53 -0.003065737781 -0.003730365278 -0.0001301173613
4.54 -0.003064924983 -0.003731009994 -0.0001301392357
4.55 -0.003064112061 -0.003731654535 -0.0001301611025
4.56 -0.003063299016 -0.003732298903 -0.0001301829617
4.57 -0.003062485847 -0.003732943097 -0.0001302048135
4.58 -0.003061672555 -0.003733587117 -0.0001302266577
4.59 -0.00306085914 -0.003734230963 -0.0001302484944
4.6 -0.003060045601 -0.003734874636 -0.0001302703236
4.61 -0.00305923194 -0.003735518134 -0.0001302921453
4.62 -0.003058418155 -0.003736161459 -0.0001303139594
4.63 -0.003057604246 -0.003736804609 -0.000130335766
4.64 -0.003056790215 -0.003737447586 -0.000130357565
4.65 -0.00305597606 -0.003738090389 -0.0001303793565
4.66 -0.003055161783 -0.003738733017 -0.0001304011405
4.67 -0.003054347382 -0.003739375472 -0.000130422917
4.68 -0.003053532859 -0.003740017753 -0.0001304446859
4.69 -0.003052718212 -0.003740659859 -0.0001304664473
4.7 -0.003051903443 -0.003741301792 -0.0001304882011
4.71 -0.00305108855 -0.00374194355 -0.0001305099474
4.72 -0.003050273535 -0.003742585135 -0.0001305316862
4.73 -0.003049458397 -0.003743226545 -0.0001305534174
4.74 -0.003048643136 -0.003743867781 -0.0001305751411
4.75 -0.003047827752 -0.003744508843 -0.0001305968573
4.76 -0.003047012245 -0.003745149731 -0.0001306185659
4.77 -0.003046196616 -0.003745790445 -0.0001306402669
4.78 -0.003045380864 -0.003746430984 -0.0001306619605
4.79 -0.00304456499 -0.00374707135 -0.0001306836464
4.8 -0.003043748993 -0.003747711541 -0.0001307053249
4.81 -0.003042932873 -0.003748351558 -0.0001307269958
4.82 -0.003042116631 -0.0037489914 -0.0001307486591
4.83 -0.003041300266 -0.003749631069 -0.0001307703149
4.84 -0.003040483779 -0.003750270563 -0.0001307919632
4.85 -0.003039667169 -0.003750909882 -0.0001308136039
4.86 -0.003038850437 -0.003751549028 -0.000130835237
4.87 -0.003038033583 -0.003752187999 -0.0001308568627
4.88 -0.003037216606 -0.003752826796 -0.0001308784807
4.89 -0.003036399507 -0.003753465418 -0.0001309000912
4.9 -0.003035582286 -0.003754103866 -0.0001309216942
4.91 -0.003034764942 -0.00375474214 -0.0001309432896
4.92 -0.003033947477 -0.003755380239 -0.0001309648774
4.93 -0.003033129889 -0.003756018164 -0.0001309864577
4.94 -0.003032312179 -0.003756655914 -0.0001310080305
4.95 -0.003031494347 -0.00375729349 -0.0001310295956
4.96 -0.003030676392 -0.003757930891 -0.0001310511533
4.97 -0.003029858316 -0.003758568118 -0.0001310727033
4.98 -0.003029040118 -0.00375920517 -0.0001310942459
4.99 -0.003028221798 -0.003759842048 -0.0001311157808
5 -0.003027403356 -0.003760478751 -0.0001311373082
5.01 -0.003026584792 -0.00376111528 -0.000131158828
5.02 -0.003025766106 -0.003761751634 -0.0001311803403
5.03 -0.003024947298 -0.003762387814 -0.000131201845
5.04 -0.003024128369 -0.003763023819 -0.0001312233422
5.05 -0.003023309318 -0.003763659649 -0.0001312448318
5.06 -0.003022490145 -0.003764295304 -0.0001312663138
5.07 -0.00302167085 -0.003764930785 -0.0001312877882
5.08 -0.003020851434 -0.003765566092 -0.0001313092551
5.09 -0.003020031896 -0.003766201223 -0.0001313307145
5.1 -0.003019212237 -0.00376683618 -0.0001313521662
5.11 -0.003018392456 -0.003767470962 -0.0001313736104
5.12 -0.003017572553 -0.003768105569 -0.000131395047
5.13 -0.003016752529 -0.003768740002 -0.0001314164761
5.14 -0.003015932384 -0.00376937426 -0.0001314378976
5.15 -0.003015112117 -0.003770008343 -0.0001314593115
5.16 -0.003014291729 -0.003770642251 -0.0001314807178
5.17 -0.003013471219 -0.003771275984 -0.0001315021166
5.18 -0.003012650588 -0.003771909543 -0.0001315235078
5.19 -0.003011829836 -0.003772542926 -0.0001315448914
5.2 -0.003011008963 -0.003773176135 -0.0001315662674
5.21 -0.003010187968 -0.003773809169 -0.0001315876359
5.22 -0.003009366852 -0.003774442028 -0.0001316089968
5.23 -0.003008545615 -0.003775074712 -0.0001316303501
5.24 -0.003007724257 -0.003775707221 -0.0001316516958
5.25 -0.003006902778 -0.003776339555 -0.000131673034
5.26 -0.003006081178 -0.003776971714 -0.0001316943646
5.27 -0.003005259456 -0.003777603698 -0.0001317156876
5.28 -0.003004437614 -0.003778235508 -0.000131737003
5.29 -0.003003615651 -0.003778867142 -0.0001317583108
5.3 -0.003002793567 -0.003779498601 -0.0001317796111
5.31 -0.003001971362 -0.003780129885 -0.0001318009038
5.32 -0.003001149036 -0.003780760994 -0.0001318221889
5.33 -0.00300032659 -0.003781391927 -0.0001318434664
5.34 -0.002999504022 -0.003782022686 -0.0001318647363
5.35 -0.002998681334 -0.00378265327 -0.0001318859986
5.36 -0.002997858526 -0.003783283678 -0.0001319072534
5.37 -0.002997035596 -0.003783913911 -0.0001319285005
5.38 -0.002996212546 -0.003784543969 -0.0001319497401
5.39 -0.002995389375 -0.003785173852 -0.0001319709721
5.4 -0.002994566084 -0.00378580356 -0.0001319921965
5.41 -0.002993742672 -0.003786433093 -0.0001320134133
5.42 -0.00299291914 -0.00378706245 -0.0001320346225
5.43 -0.002992095487 -0.003787691632 -0.0001320558241
5.44 -0.002991271714 -0.003788320638 -0.0001320770181
5.45 -0.00299044782 -0.00378894947 -0.0001320982045
5.46 -0.002989623806 -0.003789578126 -0.0001321193834
5.47 -0.002988799672 -0.003790206607 -0.0001321405546
5.48 -0.002987975418 -0.003790834912 -0.0001321617183
5.49 -0.002987151043 -0.003791463042 -0.0001321828743
5.5 -0.002986326548 -0.003792090997 -0.0001322040228
5.51 -0.002985501932 -0.003792718776 -0.0001322251636
5.52 -0.002984677197 -0.00379334638 -0.0001322462969
5.53 -0.002983852341 -0.003793973809 -0.0001322674225
5.54 -0.002983027366 -0.003794601062 -0.0001322885406
5.55 -0.00298220227 -0.003795228139 -0.000132309651
5.56 -0.002981377054 -0.003795855041 -0.0001323307539
5.57 -0.002980551718 -0.003796481768 -0.0001323518491
5.58 -0.002979726263 -0.003797108319 -0.0001323729368
5.59 -0.002978900687 -0.003797734695 -0.0001323940168
5.6 -0.002978074991 -0.003798360895 -0.0001324150893
5.61 -0.002977249176 -0.003798986919 -0.0001324361541
5.62 -0.002976423241 -0.003799612768 -0.0001324572113
5.63 -0.002975597186 -0.003800238442 -0.0001324782609
5.64 -0.002974771011 -0.00380086394 -0.0001324993029
5.65 -0.002973944716 -0.003801489262 -0.0001325203373
5.66 -0.002973118302 -0.003802114408 -0.0001325413641
5.67 -0.002972291768 -0.003802739379 -0.0001325623833
5.68 -0.002971465115 -0.003803364174 -0.0001325833949
5.69 -0.002970638342 -0.003803988794 -0.0001326043988
5.7 -0.002969811449 -0.003804613238 -0.0001326253952
5.71 -0.002968984437 -0.003805237506 -0.0001326463839
5.72 -0.002968157306 -0.003805861598 -0.000132667365
5.73 -0.002967330054 -0.003806485515 -0.0001326883385
5.74 -0.002966502684 -0.003807109256 -0.0001327093044
5.75 -0.002965675194 -0.003807732821 -0.0001327302627
5.76 -0.002964847585 -0.00380835621 -0.0001327512134
5.77 -0.002964019856 -0.003808979424 -0.0001327721564
5.78 -0.002963192009 -0.003809602461 -0.0001327930918
5.79 -0.002962364041 -0.003810225323 -0.0001328140196
5.8 -0.002961535955 -0.003810848009 -0.0001328349398
5.81 -0.00296070775 -0.003811470519 -0.0001328558524
5.82 -0.002959879425 -0.003812092853 -0.0001328767573
5.83 -0.002959050981 -0.003812715012 -0.0001328976546
5.84 -0.002958222419 -0.003813336994 -0.0001329185443
5.85 -0.002957393737 -0.003813958801 -0.0001329394264
5.86 -0.002956564936 -0.003814580431 -0.0001329603008
5.87 -0.002955736016 -0.003815201886 -0.0001329811677
5.88 -0.002954906977 -0.003815823164 -0.0001330020269
5.89 -0.002954077819 -0.003816444267 -0.0001330228784
5.9 -0.002953248543 -0.003817065193 -0.0001330437224
5.91 -0.002952419147 -0.003817685944 -0.0001330645587
5.92 -0.002951589633 -0.003818306518 -0.0001330853874
5.93 -0.00295076 -0.003818926916 -0.0001331062084
5.94 -0.002949930248 -0.003819547139 -0.0001331270219
5.95 -0.002949100378 -0.003820167185 -0.0001331478277
5.96 -0.002948270389 -0.003820787055 -0.0001331686258
5.97 -0.002947440281 -0.003821406749 -0.0001331894163
5.98 -0.002946610055 -0.003822026266 -0.0001332101992
5.99 -0.00294577971 -0.003822645608 -0.0001332309745
6 -0.002944949246 -0.003823264773 -0.0001332517421
6.01 -0.002944118664 -0.003823883762 -0.0001332725021
6.02 -0.002943287964 -0.003824502575 -0.0001332932545
6.03 -0.002942457145 -0.003825121212 -0.0001333139992
6.04 -0.002941626207 -0.003825739673 -0.0001333347363
6.05 -0.002940795152 -0.003826357957 -0.0001333554658
6.06 -0.002939963978 -0.003826976065 -0.0001333761876
6.07 -0.002939132685 -0.003827593997 -0.0001333969017
6.08 -0.002938301275 -0.003828211752 -0.0001334176083
6.09 -0.002937469746 -0.003828829331 -0.0001334383071
6.1 -0.002936638099 -0.003829446734 -0.0001334589984
6.11 -0.002935806333 -0.00383006396 -0.000133479682
6.12 -0.00293497445 -0.00383068101 -0.0001335003579
6.13 -0.002934142449 -0.003831297883 -0.0001335210263
6.14 -0.002933310329 -0.003831914581 -0.0001335416869
6.15 -0.002932478091 -0.003832531101 -0.00013356234
6.16 -0.002931645736 -0.003833147446 -0.0001335829853
6.17 -0.002930813262 -0.003833763614 -0.0001336036231
6.18 -0.002929980671 -0.003834379605 -0.0001336242531
6.19 -0.002929147962 -0.00383499542 -0.0001336448756
6.2 -0.002928315134 -0.003835611058 -0.0001336654904
6.21 -0.002927482189 -0.00383622652 -0.0001336860975
6.22 -0.002926649126 -0.003836841805 -0.000133706697
6.23 -0.002925815946 -0.003837456914 -0.0001337272888
6.24 -0.002924982647 -0.003838071846 -0.000133747873
6.25 -0.002924149231 -0.003838686602 -0.0001337684495
6.26 -0.002923315698 -0.003839301181 -0.0001337890184
6.27 -0.002922482046 -0.003839915583 -0.0001338095796
6.28 -0.002921648277 -0.003840529809 -0.0001338301332
6.29 -0.002920814391 -0.003841143858 -0.0001338506791
6.3 -0.002919980387 -0.003841757731 -0.0001338712174
6.31 -0.002919146265 -0.003842371427 -0.0001338917479
6.32 -0.002918312026 -0.003842984946 -0.0001339122709
6.33 -0.00291747767 -0.003843598288 -0.0001339327862
6.34 -0.002916643196 -0.003844211454 -0.0001339532938
6.35 -0.002915808605 -0.003844824443 -0.0001339737937
6.36 -0.002914973896 -0.003845437255 -0.000133994286
6.37 -0.002914139071 -0.00384604989 -0.0001340147707
6.38 -0.002913304128 -0.003846662349 -0.0001340352476
6.39 -0.002912469067 -0.003847274631 -0.000134055717
6.4 -0.00291163389 -0.003847886736 -0.0001340761786
6.41 -0.002910798595 -0.003848498664 -0.0001340966326
6.42 -0.002909963184 -0.003849110415 -0.0001341170789
6.43 -0.002909127655 -0.003849721989 -0.0001341375176
6.44 -0.002908292009 -0.003850333387 -0.0001341579485
6.45 -0.002907456246 -0.003850944608 -0.0001341783719
6.46 -0.002906620366 -0.003851555651 -0.0001341987875
6.47 -0.002905784369 -0.003852166518 -0.0001342191955
6.48 -0.002904948255 -0.003852777208 -0.0001342395958
6.49 -0.002904112025 -0.003853387721 -0.0001342599884
6.5 -0.002903275677 -0.003853998057 -0.0001342803734
6.51 -0.002902439213 -0.003854608215 -0.0001343007507
6.52 -0.002901602632 -0.003855218197 -0.0001343211203
6.53 -0.002900765934 -0.003855828002 -0.0001343414823
6.54 -0.002899929119 -0.00385643763 -0.0001343618366
6.55 -0.002899092188 -0.003857047081 -0.0001343821832
6.56 -0.00289825514 -0.003857656354 -0.0001344025221
6.57 -0.002897417976 -0.003858265451 -0.0001344228533
6.58 -0.002896580694 -0.00385887437 -0.0001344431769
6.59 -0.002895743297 -0.003859483113 -0.0001344634928
6.6 -0.002894905783 -0.003860091678 -0.000134483801
6.61 -0.002894068152 -0.003860700066 -0.0001345041016
6.62 -0.002893230405 -0.003861308277 -0.0001345243944
6.63 -0.002892392541 -0.003861916311 -0.0001345446796
6.64 -0.002891554561 -0.003862524167 -0.0001345649571
6.65 -0.002890716465 -0.003863131846 -0.0001345852269
6.66 -0.002889878253 -0.003863739348 -0.0001346054891
6.67 -0.002889039924 -0.003864346673 -0.0001346257435
6.68 -0.002888201479 -0.003864953821 -0.0001346459903
6.69 -0.002887362917 -0.003865560791 -0.0001346662294
6.7 -0.00288652424 -0.003866167584 -0.0001346864608
6.71 -0.002885685446 -0.003866774199 -0.0001347066845
6.72 -0.002884846536 -0.003867380638 -0.0001347269005
6.73 -0.00288400751 -0.003867986899 -0.0001347471088
6.74 -0.002883168369 -0.003868592982 -0.0001347673095
6.75 -0.002882329111 -0.003869198889 -0.0001347875024
6.76 -0.002881489737 -0.003869804617 -0.0001348076877
6.77 -0.002880650247 -0.003870410169 -0.0001348278653
6.78 -0.002879810641 -0.003871015543 -0.0001348480352
6.79 -0.00287897092 -0.003871620739 -0.0001348681974
6.8 -0.002878131082 -0.003872225758 -0.0001348883519
6.81 -0.002877291129 -0.0038728306 -0.0001349084987
6.82 -0.00287645106 -0.003873435264 -0.0001349286378
6.83 -0.002875610875 -0.003874039751 -0.0001349487692
6.84 -0.002874770574 -0.00387464406 -0.0001349688929
6.85 -0.002873930158 -0.003875248192 -0.000134989009
6.86 -0.002873089626 -0.003875852146 -0.0001350091173
6.87 -0.002872248979 -0.003876455922 -0.0001350292179
6.88 -0.002871408216 -0.003877059521 -0.0001350493109
6.89 -0.002870567338 -0.003877662942 -0.0001350693961
6.9 -0.002869726343 -0.003878266186 -0.0001350894736
6.91 -0.002868885234 -0.003878869252 -0.0001351095435
6.92 -0.002868044009 -0.003879472141 -0.0001351296056
6.93 -0.002867202669 -0.003880074851 -0.00013514966
6.94 -0.002866361213 -0.003880677384 -0.0001351697068
6.95 -0.002865519642 -0.00388127974 -0.0001351897458
6.96 -0.002864677955 -0.003881881917 -0.0001352097771
6.97 -0.002863836154 -0.003882483917 -0.0001352298007
6.98 -0.002862994237 -0.00388308574 -0.0001352498167
6.99 -0.002862152205 -0.003883687384 -0.0001352698249
7 -0.002861310058 -0.003884288851 -0.0001352898254
7.01 -0.002860467795 -0.00388489014 -0.0001353098182
7.02 -0.002859625418 -0.003885491251 -0.0001353298032
7.03 -0.002858782925 -0.003886092184 -0.0001353497806
7.04 -0.002857940317 -0.00388669294 -0.0001353697503
7.05 -0.002857097595 -0.003887293517 -0.0001353897122
7.06 -0.002856254757 -0.003887893917 -0.0001354096665
7.07 -0.002855411805 -0.003888494139 -0.000135429613
7.08 -0.002854568737 -0.003889094183 -0.0001354495518
7.09 -0.002853725555 -0.003889694049 -0.0001354694829
7.1 -0.002852882258 -0.003890293737 -0.0001354894063
7.11 -0.002852038846 -0.003890893248 -0.000135509322
7.12 -0.002851195319 -0.00389149258 -0.00013552923
7.13 -0.002850351678 -0.003892091734 -0.0001355491302
7.14 -0.002849507922 -0.003892690711 -0.0001355690228
7.15 -0.002848664051 -0.003893289509 -0.0001355889076
7.16 -0.002847820066 -0.003893888129 -0.0001356087847
7.17 -0.002846975965 -0.003894486571 -0.000135628654
7.18 -0.002846131751 -0.003895084836 -0.0001356485157
7.19 -0.002845287422 -0.003895682922 -0.0001356683696
7.2 -0.002844442978 -0.00389628083 -0.0001356882158
7.21 -0.00284359842 -0.00389687856 -0.0001357080543
7.22 -0.002842753748 -0.003897476112 -0.0001357278851
7.23 -0.002841908961 -0.003898073485 -0.0001357477082
7.24 -0.002841064059 -0.003898670681 -0.0001357675235
7.25 -0.002840219044 -0.003899267698 -0.0001357873311
7.26 -0.002839373914 -0.003899864538 -0.000135807131
7.27 -0.00283852867 -0.003900461199 -0.0001358269231
7.28 -0.002837683311 -0.003901057682 -0.0001358467075
7.29 -0.002836837839 -0.003901653986 -0.0001358664842
7.3 -0.002835992252 -0.003902250113 -0.0001358862532
7.31 -0.002835146551 -0.003902846061 -0.0001359060144
7.32 -0.002834300736 -0.003903441831 -0.0001359257679
7.33 -0.002833454807 -0.003904037422 -0.0001359455137
7.34 -0.002832608764 -0.003904632836 -0.0001359652518
7.35 -0.002831762607 -0.003905228071 -0.0001359849821
7.36 -0.002830916336 -0.003905823127 -0.0001360047047
7.37 -0.002830069951 -0.003906418006 -0.0001360244195
7.38 -0.002829223452 -0.003907012706 -0.0001360441266
7.39 -0.002828376839 -0.003907607227 -0.000136063826
7.4 -0.002827530113 -0.003908201571 -0.0001360835176
7.41 -0.002826683272 -0.003908795735 -0.0001361032016
7.42 -0.002825836318 -0.003909389722 -0.0001361228777
7.43 -0.00282498925 -0.00390998353 -0.0001361425462
7.44 -0.002824142069 -0.003910577159 -0.0001361622069
7.45 -0.002823294774 -0.00391117061 -0.0001361818598
7.46 -0.002822447365 -0.003911763883 -0.0001362015051
7.47 -0.002821599843 -0.003912356977 -0.0001362211425
7.48 -0.002820752207 -0.003912949892 -0.0001362407723
7.49 -0.002819904457 -0.003913542629 -0.0001362603943
7.5 -0.002819056594 -0.003914135188 -0.0001362800085
7.51 -0.002818208618 -0.003914727568 -0.0001362996151
7.52 -0.002817360528 -0.003915319769 -0.0001363192138
7.53 -0.002816512325 -0.003915911792 -0.0001363388049
7.54 -0.002815664008 -0.003916503636 -0.0001363583881
7.55 -0.002814815578 -0.003917095301 -0.0001363779637
7.56 -0.002813967035 -0.003917686788 -0.0001363975315
7.57 -0.002813118378 -0.003918278096 -0.0001364170915
7.58 -0.002812269609 -0.003918869226 -0.0001364366438
7.59 -0.002811420726 -0.003919460177 -0.0001364561884
7.6 -0.00281057173 -0.003920050949 -0.0001364757252
7.61 -0.002809722621 -0.003920641542 -0.0001364952542
7.62 -0.002808873398 -0.003921231957 -0.0001365147755
7.63 -0.002808024063 -0.003921822193 -0.0001365342891
7.64 -0.002807174615 -0.00392241225 -0.0001365537949
7.65 -0.002806325054 -0.003923002128 -0.0001365732929
7.66 -0.002805475379 -0.003923591828 -0.0001365927832
7.67 -0.002804625592 -0.003924181349 -0.0001366122658
7.68 -0.002803775692 -0.003924770691 -0.0001366317405
7.69 -0.002802925679 -0.003925359854 -0.0001366512076
7.7 -0.002802075553 -0.003925948838 -0.0001366706668
7.71 -0.002801225315 -0.003926537644 -0.0001366901184
7.72 -0.002800374963 -0.00392712627 -0.0001367095621
7.73 -0.002799524499 -0.003927714718 -0.0001367289981
7.74 -0.002798673923 -0.003928302987 -0.0001367484264
7.75 -0.002797823233 -0.003928891077 -0.0001367678468
7.76 -0.002796972431 -0.003929478987 -0.0001367872596
7.77 -0.002796121517 -0.003930066719 -0.0001368066645
7.78 -0.00279527049 -0.003930654272 -0.0001368260617
7.79 -0.00279441935 -0.003931241646 -0.0001368454512
7.8 -0.002793568098 -0.003931828841 -0.0001368648329
7.81 -0.002792716733 -0.003932415857 -0.0001368842068
7.82 -0.002791865256 -0.003933002694 -0.0001369035729
7.83 -0.002791013667 -0.003933589352 -0.0001369229313
7.84 -0.002790161965 -0.00393417583 -0.0001369422819
7.85 -0.002789310151 -0.00393476213 -0.0001369616248
7.86 -0.002788458225 -0.003935348251 -0.0001369809599
7.87 -0.002787606186 -0.003935934192 -0.0001370002872
7.88 -0.002786754036 -0.003936519954 -0.0001370196067
7.89 -0.002785901773 -0.003937105538 -0.0001370389185
7.9 -0.002785049398 -0.003937690942 -0.0001370582225
7.91 -0.00278419691 -0.003938276167 -0.0001370775188
7.92 -0.002783344311 -0.003938861212 -0.0001370968072
7.93 -0.0027824916 -0.003939446079 -0.0001371160879
7.94 -0.002781638776 -0.003940030766 -0.0001371353609
7.95 -0.002780785841 -0.003940615274 -0.000137154626
7.96 -0.002779932793 -0.003941199603 -0.0001371738834
7.97 -0.002779079634 -0.003941783752 -0.000137193133
7.98 -0.002778226363 -0.003942367722 -0.0001372123748
7.99 -0.00277737298 -0.003942951513 -0.0001372316089
8 -0.002776519485 -0.003943535125 -0.0001372508352
8.01 -0.002775665879 -0.003944118557 -0.0001372700537
8.02 -0.00277481216 -0.00394470181 -0.0001372892644
8.03 -0.00277395833 -0.003945284884 -0.0001373084673
8.04 -0.002773104389 -0.003945867778 -0.0001373276625
8.05 -0.002772250335 -0.003946450492 -0.0001373468499
8.06 -0.00277139617 -0.003947033028 -0.0001373660295
8.07 -0.002770541894 -0.003947615384 -0.0001373852013
8.08 -0.002769687506 -0.00394819756 -0.0001374043654
8.09 -0.002768833006 -0.003948779558 -0.0001374235216
8.1 -0.002767978395 -0.003949361375 -0.0001374426701
8.11 -0.002767123672 -0.003949943013 -0.0001374618108
8.12 -0.002766268838 -0.003950524472 -0.0001374809437
8.13 -0.002765413893 -0.003951105751 -0.0001375000688
8.14 -0.002764558836 -0.003951686851 -0.0001375191862
8.15 -0.002763703668 -0.003952267771 -0.0001375382957
8.16 -0.002762848389 -0.003952848511 -0.0001375573975
8.17 -0.002761992999 -0.003953429072 -0.0001375764914
8.18 -0.002761137497 -0.003954009454 -0.0001375955776
8.19 -0.002760281884 -0.003954589655 -0.000137614656
8.2 -0.00275942616 -0.003955169678 -0.0001376337266
8.21 -0.002758570325 -0.00395574952 -0.0001376527895
8.22 -0.002757714378 -0.003956329183 -0.0001376718445
8.23 -0.002756858321 -0.003956908666 -0.0001376908917
8.24 -0.002756002153 -0.00395748797 -0.0001377099312
8.25 -0.002755145873 -0.003958067094 -0.0001377289628
8.26 -0.002754289483 -0.003958646038 -0.0001377479866
8.27 -0.002753432982 -0.003959224802 -0.0001377670027
8.28 -0.00275257637 -0.003959803387 -0.000137786011
8.29 -0.002751719647 -0.003960381792 -0.0001378050114
8.3 -0.002750862813 -0.003960960017 -0.0001378240041
8.31 -0.002750005869 -0.003961538062 -0.000137842989
8.32 -0.002749148814 -0.003962115928 -0.000137861966
8.33 -0.002748291648 -0.003962693614 -0.0001378809353
8.34 -0.002747434371 -0.00396327112 -0.0001378998968
8.35 -0.002746576984 -0.003963848446 -0.0001379188505
8.36 -0.002745719486 -0.003964425592 -0.0001379377963
8.37 -0.002744861878 -0.003965002558 -0.0001379567344
8.38 -0.002744004159 -0.003965579345 -0.0001379756647
8.39 -0.002743146329 -0.003966155951 -0.0001379945872
8.4 -0.002742288389 -0.003966732378 -0.0001380135018
8.41 -0.002741430339 -0.003967308625 -0.0001380324087
8.42 -0.002740572178 -0.003967884691 -0.0001380513077
8.43 -0.002739713907 -0.003968460578 -0.000138070199
8.44 -0.002738855525 -0.003969036285 -0.0001380890824
8.45 -0.002737997033 -0.003969611812 -0.0001381079581
8.46 -0.002737138431 -0.003970187159 -0.0001381268259
8.47 -0.002736279719 -0.003970762326 -0.0001381456859
8.48 -0.002735420896 -0.003971337312 -0.0001381645381
8.49 -0.002734561963 -0.003971912119 -0.0001381833825
8.5 -0.002733702921 -0.003972486746 -0.0001382022191
8.51 -0.002732843768 -0.003973061192 -0.0001382210479
8.52 -0.002731984504 -0.003973635459 -0.0001382398689
8.53 -0.002731125131 -0.003974209545 -0.000138258682
8.54 -0.002730265648 -0.003974783451 -0.0001382774874
8.55 -0.002729406055 -0.003975357177 -0.0001382962849
8.56 -0.002728546352 -0.003975930723 -0.0001383150746
8.57 -0.002727686539 -0.003976504089 -0.0001383338565
8.58 -0.002726826616 -0.003977077275 -0.0001383526306
8.59 -0.002725966583 -0.00397765028 -0.0001383713969
8.6 -0.002725106441 -0.003978223105 -0.0001383901553
8.61 -0.002724246189 -0.00397879575 -0.000138408906
8.62 -0.002723385827 -0.003979368215 -0.0001384276488
8.63 -0.002722525355 -0.003979940499 -0.0001384463838
8.64 -0.002721664773 -0.003980512603 -0.000138465111
8.65 -0.002720804082 -0.003981084527 -0.0001384838303
8.66 -0.002719943282 -0.00398165627 -0.0001385025418
8.67 -0.002719082372 -0.003982227834 -0.0001385212456
8.68 -0.002718221352 -0.003982799216 -0.0001385399415
8.69 -0.002717360222 -0.003983370419 -0.0001385586295
8.7 -0.002716498984 -0.003983941441 -0.0001385773098
8.71 -0.002715637636 -0.003984512283 -0.0001385959822
8.72 -0.002714776178 -0.003985082944 -0.0001386146468
8.73 -0.002713914611 -0.003985653425 -0.0001386333036
8.74 -0.002713052935 -0.003986223726 -0.0001386519525
8.75 -0.002712191149 -0.003986793846 -0.0001386705936
8.76 -0.002711329254 -0.003987363785 -0.0001386892269
8.77 -0.00271046725 -0.003987933544 -0.0001387078524
8.78 -0.002709605137 -0.003988503123 -0.00013872647
8.79 -0.002708742914 -0.003989072521 -0.0001387450798
8.8 -0.002707880582 -0.003989641739 -0.0001387636818
8.81 -0.002707018142 -0.003990210776 -0.0001387822759
8.82 -0.002706155592 -0.003990779632 -0.0001388008623
8.83 -0.002705292933 -0.003991348308 -0.0001388194407
8.84 -0.002704430165 -0.003991916804 -0.0001388380114
8.85 -0.002703567288 -0.003992485118 -0.0001388565742
8.86 -0.002702704302 -0.003993053253 -0.0001388751292
8.87 -0.002701841208 -0.003993621206 -0.0001388936763
8.88 -0.002700978004 -0.003994188979 -0.0001389122156
8.89 -0.002700114692 -0.003994756571 -0.0001389307471
8.9 -0.00269925127 -0.003995323983 -0.0001389492707
8.91 -0.00269838774 -0.003995891214 -0.0001389677865
8.92 -0.002697524101 -0.003996458264 -0.0001389862945
8.93 -0.002696660354 -0.003997025134 -0.0001390047946
8.94 -0.002695796498 -0.003997591822 -0.0001390232869
8.95 -0.002694932533 -0.00399815833 -0.0001390417713
8.96 -0.00269406846 -0.003998724658 -0.0001390602479
8.97 -0.002693204278 -0.003999290804 -0.0001390787167
8.98 -0.002692339987 -0.00399985677 -0.0001390971776
8.99 -0.002691475588 -0.004000422555 -0.0001391156307
9 -0.002690611081 -0.004000988159 -0.0001391340759
9.01 -0.002689746465 -0.004001553582 -0.0001391525133
9.02 -0.00268888174 -0.004002118825 -0.0001391709428
9.03 -0.002688016908 -0.004002683886 -0.0001391893645
9.04 -0.002687151967 -0.004003248767 -0.0001392077784
9.05 -0.002686286917 -0.004003813467 -0.0001392261844
9.06 -0.00268542176 -0.004004377986 -0.0001392445826
9.07 -0.002684556494 -0.004004942324 -0.0001392629729
9.08 -0.00268369112 -0.004005506481 -0.0001392813553
9.09 -0.002682825637 -0.004006070457 -0.0001392997299
9.1 -0.002681960047 -0.004006634252 -0.0001393180967
9.11 -0.002681094349 -0.004007197866 -0.0001393364556
9.12 -0.002680228542 -0.004007761299 -0.0001393548067
9.13 -0.002679362627 -0.004008324552 -0.0001393731499
9.14 -0.002678496605 -0.004008887623 -0.0001393914852
9.15 -0.002677630474 -0.004009450513 -0.0001394098127
9.16 -0.002676764236 -0.004010013222 -0.0001394281324
9.17 -0.002675897889 -0.00401057575 -0.0001394464442
9.18 -0.002675031435 -0.004011138097 -0.0001394647481
9.19 -0.002674164873 -0.004011700262 -0.0001394830442
9.2 -0.002673298203 -0.004012262247 -0.0001395013324
9.21 -0.002672431425 -0.004012824051 -0.0001395196128
9.22 -0.00267156454 -0.004013385673 -0.0001395378853
9.23 -0.002670697546 -0.004013947114 -0.0001395561499
9.24 -0.002669830445 -0.004014508374 -0.0001395744067
9.25 -0.002668963237 -0.004015069453 -0.0001395926557
9.26 -0.002668095921 -0.004015630351 -0.0001396108967
9.27 -0.002667228497 -0.004016191067 -0.00013962913
9.28 -0.002666360966 -0.004016751603 -0.0001396473553
9.29 -0.002665493327 -0.004017311957 -0.0001396655728
9.3 -0.002664625581 -0.00401787213 -0.0001396837824
9.31 -0.002663757727 -0.004018432121 -0.0001397019842
9.32 -0.002662889766 -0.004018991931 -0.0001397201781
9.33 -0.002662021698 -0.00401955156 -0.0001397383641
9.34 -0.002661153522 -0.004020111008 -0.0001397565423
9.35 -0.002660285239 -0.004020670274 -0.0001397747126
9.36 -0.002659416849 -0.004021229359 -0.000139792875
9.37 -0.002658548351 -0.004021788262 -0.0001398110296
9.38 -0.002657679746 -0.004022346984 -0.0001398291763
9.39 -0.002656811034 -0.004022905525 -0.0001398473151
9.4 -0.002655942215 -0.004023463884 -0.0001398654461
9.41 -0.002655073289 -0.004024022062 -0.0001398835691
9.42 -0.002654204256 -0.004024580059 -0.0001399016844
9.43 -0.002653335115 -0.004025137874 -0.0001399197917
9.44 -0.002652465868 -0.004025695507 -0.0001399378912
9.45 -0.002651596514 -0.00402625296 -0.0001399559828
9.46 -0.002650727052 -0.00402681023 -0.0001399740665
9.47 -0.002649857484 -0.004027367319 -0.0001399921424
9.48 -0.002648987809 -0.004027924227 -0.0001400102103
9.49 -0.002648118027 -0.004028480953 -0.0001400282705
9.5 -0.002647248139 -0.004029037497 -0.0001400463227
9.51 -0.002646378143 -0.00402959386 -0.000140064367
9.52 -0.002645508041 -0.004030150041 -0.0001400824035
9.53 -0.002644637832 -0.004030706041 -0.0001401004321
9.54 -0.002643767516 -0.004031261859 -0.0001401184528
9.55 -0.002642897094 -0.004031817496 -0.0001401364657
9.56 -0.002642026565 -0.004032372951 -0.0001401544706
9.57 -0.00264115593 -0.004032928224 -0.0001401724677
9.58 -0.002640285188 -0.004033483315 -0.0001401904569
9.59 -0.00263941434 -0.004034038225 -0.0001402084382
9.6 -0.002638543385 -0.004034592953 -0.0001402264116
9.61 -0.002637672323 -0.0040351475 -0.0001402443772
9.62 -0.002636801155 -0.004035701864 -0.0001402623349
9.63 -0.002635929881 -0.004036256047 -0.0001402802846
9.64 -0.002635058501 -0.004036810048 -0.0001402982265
9.65 -0.002634187014 -0.004037363868 -0.0001403161606
9.66 -0.002633315421 -0.004037917505 -0.0001403340867
9.67 -0.002632443722 -0.004038470961 -0.0001403520049
9.68 -0.002631571916 -0.004039024235 -0.0001403699153
9.69 -0.002630700004 -0.004039577327 -0.0001403878177
9.7 -0.002629827986 -0.004040130238 -0.0001404057123
9.71 -0.002628955862 -0.004040682966 -0.000140423599
9.72 -0.002628083632 -0.004041235513 -0.0001404414778
9.73 -0.002627211296 -0.004041787877 -0.0001404593487
9.74 -0.002626338854 -0.00404234006 -0.0001404772117
9.75 -0.002625466306 -0.004042892061 -0.0001404950668
9.76 -0.002624593652 -0.00404344388 -0.0001405129141
9.77 -0.002623720892 -0.004043995517 -0.0001405307534
9.78 -0.002622848026 -0.004044546972 -0.0001405485848
9.79 -0.002621975055 -0.004045098245 -0.0001405664084
9.8 -0.002621101977 -0.004045649336 -0.000140584224
9.81 -0.002620228794 -0.004046200245 -0.0001406020318
9.82 -0.002619355505 -0.004046750972 -0.0001406198317
9.83 -0.00261848211 -0.004047301517 -0.0001406376236
9.84 -0.00261760861 -0.00404785188 -0.0001406554077
9.85 -0.002616735004 -0.004048402061 -0.0001406731839
9.86 -0.002615861292 -0.00404895206 -0.0001406909521
9.87 -0.002614987475 -0.004049501876 -0.0001407087125
9.88 -0.002614113552 -0.004050051511 -0.000140726465
9.89 -0.002613239524 -0.004050600963 -0.0001407442095
9.9 -0.00261236539 -0.004051150234 -0.0001407619462
9.91 -0.002611491151 -0.004051699322 -0.000140779675
9.92 -0.002610616807 -0.004052248228 -0.0001407973958
9.93 -0.002609742357 -0.004052796952 -0.0001408151088
9.94 -0.002608867801 -0.004053345493 -0.0001408328138
9.95 -0.002607993141 -0.004053893853 -0.000140850511
9.96 -0.002607118375 -0.00405444203 -0.0001408682002
9.97 -0.002606243504 -0.004054990025 -0.0001408858816
9.98 -0.002605368527 -0.004055537838 -0.000140903555
9.99 -0.002604493446 -0.004056085468 -0.0001409212205
10 -0.002603618259 -0.004056632916 -0.0001409388781
10.01 -0.002602742967 -0.004057180182 -0.0001409565278
10.02 -0.002601867571 -0.004057727266 -0.0001409741696
10.03 -0.002600992069 -0.004058274167 -0.0001409918035
10.04 -0.002600116462 -0.004058820886 -0.0001410094295
10.05 -0.00259924075 -0.004059367422 -0.0001410270476
10.06 -0.002598364933 -0.004059913777 -0.0001410446577
10.07 -0.002597489011 -0.004060459948 -0.00014106226
10.08 -0.002596612985 -0.004061005938 -0.0001410798543
10.09 -0.002595736853 -0.004061551745 -0.0001410974407
10.1 -0.002594860617 -0.004062097369 -0.0001411150192
10.11 -0.002593984276 -0.004062642811 -0.0001411325898
10.12 -0.00259310783 -0.004063188071 -0.0001411501525
10.13 -0.002592231279 -0.004063733148 -0.0001411677072
10.14 -0.002591354624 -0.004064278043 -0.0001411852541
10.15 -0.002590477864 -0.004064822755 -0.000141202793
10.16 -0.002589601 -0.004065367285 -0.000141220324
10.17 -0.002588724031 -0.004065911632 -0.0001412378471
10.18 -0.002587846957 -0.004066455796 -0.0001412553622
10.19 -0.002586969779 -0.004066999778 -0.0001412728695
10.2 -0.002586092497 -0.004067543578 -0.0001412903688
10.21 -0.00258521511 -0.004068087195 -0.0001413078602
10.22 -0.002584337618 -0.004068630629 -0.0001413253437
10.23 -0.002583460022 -0.004069173881 -0.0001413428193
10.24 -0.002582582322 -0.00406971695 -0.0001413602869
10.25 -0.002581704518 -0.004070259836 -0.0001413777466
10.26 -0.002580826609 -0.00407080254 -0.0001413951984
10.27 -0.002579948596 -0.004071345061 -0.0001414126423
10.28 -0.002579070479 -0.004071887399 -0.0001414300782
10.29 -0.002578192257 -0.004072429555 -0.0001414475062
10.3 -0.002577313932 -0.004072971528 -0.0001414649263
10.31 -0.002576435502 -0.004073513318 -0.0001414823385
10.32 -0.002575556968 -0.004074054926 -0.0001414997427
10.33 -0.00257467833 -0.00407459635 -0.000141517139
10.34 -0.002573799588 -0.004075137592 -0.0001415345274
10.35 -0.002572920743 -0.004075678652 -0.0001415519078
10.36 -0.002572041793 -0.004076219528 -0.0001415692803
10.37 -0.002571162739 -0.004076760221 -0.0001415866449
10.38 -0.002570283582 -0.004077300732 -0.0001416040016
10.39 -0.00256940432 -0.00407784106 -0.0001416213503
10.4 -0.002568524955 -0.004078381205 -0.0001416386911
10.41 -0.002567645486 -0.004078921167 -0.0001416560239
10.42 -0.002566765913 -0.004079460947 -0.0001416733489
10.43 -0.002565886237 -0.004080000543 -0.0001416906658
10.44 -0.002565006456 -0.004080539956 -0.0001417079749
10.45 -0.002564126573 -0.004081079187 -0.000141725276
10.46 -0.002563246585 -0.004081618234 -0.0001417425692
10.47 -0.002562366494 -0.004082157099 -0.0001417598544
10.48 -0.0025614863 -0.004082695781 -0.0001417771317
10.49 -0.002560606002 -0.004083234279 -0.0001417944011
10.5 -0.0025597256 -0.004083772595 -0.0001418116625
10.51 -0.002558845095 -0.004084310728 -0.000141828916
10.52 -0.002557964487 -0.004084848677 -0.0001418461615
10.53 -0.002557083775 -0.004085386444 -0.0001418633991
10.54 -0.002556202959 -0.004085924027 -0.0001418806288
10.55 -0.002555322041 -0.004086461428 -0.0001418978505
10.56 -0.002554441019 -0.004086998645 -0.0001419150643
10.57 -0.002553559894 -0.004087535679 -0.0001419322701
10.58 -0.002552678666 -0.00408807253 -0.000141949468
10.59 -0.002551797334 -0.004088609198 -0.0001419666579
10.6 -0.0025509159 -0.004089145683 -0.0001419838399
10.61 -0.002550034362 -0.004089681985 -0.000142001014
10.62 -0.002549152721 -0.004090218103 -0.0001420181801
10.63 -0.002548270977 -0.004090754039 -0.0001420353383
10.64 -0.002547389131 -0.004091289791 -0.0001420524885
10.65 -0.002546507181 -0.00409182536 -0.0001420696307
10.66 -0.002545625128 -0.004092360745 -0.000142086765
10.67 -0.002544742972 -0.004092895948 -0.0001421038914
10.68 -0.002543860714 -0.004093430967 -0.0001421210098
10.69 -0.002542978352 -0.004093965803 -0.0001421381203
10.7 -0.002542095888 -0.004094500455 -0.0001421552228
10.71 -0.002541213321 -0.004095034925 -0.0001421723174
10.72 -0.002540330651 -0.004095569211 -0.000142189404
10.73 -0.002539447878 -0.004096103313 -0.0001422064826
10.74 -0.002538565003 -0.004096637232 -0.0001422235533
10.75 -0.002537682025 -0.004097170968 -0.0001422406161
10.76 -0.002536798945 -0.004097704521 -0.0001422576708
10.77 -0.002535915761 -0.00409823789 -0.0001422747177
10.78 -0.002535032476 -0.004098771076 -0.0001422917565
10.79 -0.002534149087 -0.004099304078 -0.0001423087875
10.8 -0.002533265597 -0.004099836897 -0.0001423258104
10.81 -0.002532382004 -0.004100369533 -0.0001423428254
10.82 -0.002531498308 -0.004100901985 -0.0001423598325
10.83 -0.00253061451 -0.004101434253 -0.0001423768316
10.84 -0.00252973061 -0.004101966338 -0.0001423938227
10.85 -0.002528846607 -0.00410249824 -0.0001424108059
10.86 -0.002527962502 -0.004103029958 -0.0001424277811
10.87 -0.002527078295 -0.004103561493 -0.0001424447483
10.88 -0.002526193986 -0.004104092843 -0.0001424617076
10.89 -0.002525309574 -0.004104624011 -0.0001424786589
10.9 -0.00252442506 -0.004105154995 -0.0001424956022
10.91 -0.002523540444 -0.004105685795 -0.0001425125376
10.92 -0.002522655726 -0.004106216412 -0.0001425294651
10.93 -0.002521770906 -0.004106746845 -0.0001425463845
10.94 -0.002520885984 -0.004107277094 -0.000142563296
10.95 -0.00252000096 -0.00410780716 -0.0001425801995
10.96 -0.002519115834 -0.004108337042 -0.0001425970951
10.97 -0.002518230606 -0.00410886674 -0.0001426139827
10.98 -0.002517345276 -0.004109396255 -0.0001426308623
10.99 -0.002516459844 -0.004109925586 -0.0001426477339
11 -0.002515574311 -0.004110454734 -0.0001426645976
11.01 -0.002514688676 -0.004110983697 -0.0001426814533
11.02 -0.002513802939 -0.004111512477 -0.0001426983011
11.03 -0.0025129171 -0.004112041073 -0.0001427151408
11.04 -0.002512031159 -0.004112569486 -0.0001427319726
11.05 -0.002511145117 -0.004113097714 -0.0001427487965
11.06 -0.002510258973 -0.004113625759 -0.0001427656123
11.07 -0.002509372728 -0.00411415362 -0.0001427824202
11.08 -0.002508486381 -0.004114681297 -0.0001427992201
11.09 -0.002507599932 -0.00411520879 -0.000142816012
11.1 -0.002506713382 -0.0041157361 -0.000142832796
11.11 -0.002505826731 -0.004116263225 -0.0001428495719
11.12 -0.002504939978 -0.004116790167 -0.0001428663399
11.13 -0.002504053124 -0.004117316925 -0.0001428830999
11.14 -0.002503166168 -0.004117843499 -0.000142899852
11.15 -0.002502279111 -0.004118369889 -0.000142916596
11.16 -0.002501391953 -0.004118896095 -0.0001429333321
11.17 -0.002500504693 -0.004119422117 -0.0001429500602
11.18 -0.002499617332 -0.004119947955 -0.0001429667804
11.19 -0.00249872987 -0.004120473609 -0.0001429834925
11.2 -0.002497842307 -0.004120999079 -0.0001430001966
11.21 -0.002496954643 -0.004121524365 -0.0001430168928
11.22 -0.002496066878 -0.004122049467 -0.000143033581
11.23 -0.002495179011 -0.004122574385 -0.0001430502612
11.24 -0.002494291044 -0.004123099119 -0.0001430669334
11.25 -0.002493402975 -0.004123623669 -0.0001430835977
11.26 -0.002492514806 -0.004124148035 -0.0001431002539
11.27 -0.002491626536 -0.004124672217 -0.0001431169022
11.28 -0.002490738164 -0.004125196214 -0.0001431335425
11.29 -0.002489849692 -0.004125720028 -0.0001431501748
11.3 -0.002488961119 -0.004126243657 -0.0001431667991
11.31 -0.002488072445 -0.004126767102 -0.0001431834154
11.32 -0.002487183671 -0.004127290363 -0.0001432000237
11.33 -0.002486294796 -0.00412781344 -0.0001432166241
11.34 -0.00248540582 -0.004128336333 -0.0001432332164
11.35 -0.002484516743 -0.004128859042 -0.0001432498008
11.36 -0.002483627566 -0.004129381566 -0.0001432663771
11.37 -0.002482738288 -0.004129903906 -0.0001432829455
11.38 -0.002481848909 -0.004130426062 -0.0001432995059
11.39 -0.00248095943 -0.004130948033 -0.0001433160583
11.4 -0.002480069851 -0.00413146982 -0.0001433326027
11.41 -0.002479180171 -0.004131991423 -0.0001433491391
11.42 -0.002478290391 -0.004132512842 -0.0001433656675
11.43 -0.00247740051 -0.004133034076 -0.0001433821879
11.44 -0.002476510529 -0.004133555126 -0.0001433987003
11.45 -0.002475620447 -0.004134075992 -0.0001434152047
11.46 -0.002474730265 -0.004134596673 -0.0001434317011
11.47 -0.002473839983 -0.00413511717 -0.0001434481895
11.48 -0.002472949601 -0.004135637483 -0.0001434646699
11.49 -0.002472059118 -0.004136157611 -0.0001434811424
11.5 -0.002471168536 -0.004136677554 -0.0001434976068
11.51 -0.002470277853 -0.004137197314 -0.0001435140632
11.52 -0.00246938707 -0.004137716889 -0.0001435305116
11.53 -0.002468496187 -0.004138236279 -0.000143546952
11.54 -0.002467605204 -0.004138755485 -0.0001435633845
11.55 -0.002466714121 -0.004139274506 -0.0001435798089
11.56 -0.002465822938 -0.004139793343 -0.0001435962253
11.57 -0.002464931655 -0.004140311995 -0.0001436126337
11.58 -0.002464040272 -0.004140830463 -0.0001436290341
11.59 -0.002463148789 -0.004141348747 -0.0001436454265
11.6 -0.002462257206 -0.004141866845 -0.0001436618109
11.61 -0.002461365524 -0.00414238476 -0.0001436781872
11.62 -0.002460473742 -0.004142902489 -0.0001436945556
11.63 -0.00245958186 -0.004143420034 -0.000143710916
11.64 -0.002458689878 -0.004143937395 -0.0001437272683
11.65 -0.002457797797 -0.00414445457 -0.0001437436127
11.66 -0.002456905616 -0.004144971562 -0.000143759949
11.67 -0.002456013335 -0.004145488368 -0.0001437762774
11.68 -0.002455120955 -0.00414600499 -0.0001437925977
11.69 -0.002454228475 -0.004146521427 -0.00014380891
11.7 -0.002453335896 -0.004147037679 -0.0001438252143
11.71 -0.002452443217 -0.004147553747 -0.0001438415106
11.72 -0.002451550439 -0.00414806963 -0.0001438577988
11.73 -0.002450657562 -0.004148585328 -0.0001438740791
11.74 -0.002449764585 -0.004149100842 -0.0001438903513
11.75 -0.002448871509 -0.004149616171 -0.0001439066156
11.76 -0.002447978333 -0.004150131315 -0.0001439228718
11.77 -0.002447085058 -0.004150646274 -0.00014393912
11.78 -0.002446191684 -0.004151161048 -0.0001439553602
11.79 -0.002445298211 -0.004151675638 -0.0001439715923
11.8 -0.002444404638 -0.004152190042 -0.0001439878165
11.81 -0.002443510966 -0.004152704262 -0.0001440040326
11.82 -0.002442617196 -0.004153218297 -0.0001440202407
11.83 -0.002441723326 -0.004153732147 -0.0001440364408
11.84 -0.002440829357 -0.004154245812 -0.0001440526329
11.85 -0.002439935289 -0.004154759293 -0.0001440688169
11.86 -0.002439041122 -0.004155272588 -0.0001440849929
11.87 -0.002438146856 -0.004155785699 -0.000144101161
11.88 -0.002437252491 -0.004156298624 -0.0001441173209
11.89 -0.002436358028 -0.004156811365 -0.0001441334729
11.9 -0.002435463465 -0.00415732392 -0.0001441496168
11.91 -0.002434568804 -0.004157836291 -0.0001441657527
11.92 -0.002433674044 -0.004158348477 -0.0001441818806
11.93 -0.002432779185 -0.004158860477 -0.0001441980005
11.94 -0.002431884227 -0.004159372293 -0.0001442141123
11.95 -0.002430989171 -0.004159883923 -0.0001442302161
11.96 -0.002430094016 -0.004160395369 -0.0001442463119
11.97 -0.002429198763 -0.004160906629 -0.0001442623997
11.98 -0.002428303411 -0.004161417704 -0.0001442784794
11.99 -0.00242740796 -0.004161928595 -0.0001442945511
12 -0.002426512411 -0.0041624393 -0.0001443106148
12.01 -0.002425616763 -0.00416294982 -0.0001443266704
12.02 -0.002424721017 -0.004163460155 -0.000144342718
12.03 -0.002423825172 -0.004163970304 -0.0001443587576
12.04 -0.002422929229 -0.004164480269 -0.0001443747891
12.05 -0.002422033188 -0.004164990048 -0.0001443908127
12.06 -0.002421137049 -0.004165499642 -0.0001444068281
12.07 -0.002420240811 -0.004166009051 -0.0001444228356
12.08 -0.002419344474 -0.004166518275 -0.000144438835
12.09 -0.00241844804 -0.004167027313 -0.0001444548264
12.1 -0.002417551508 -0.004167536166 -0.0001444708097
12.11 -0.002416654877 -0.004168044834 -0.000144486785
12.12 -0.002415758148 -0.004168553317 -0.0001445027523
12.13 -0.002414861321 -0.004169061614 -0.0001445187115
12.14 -0.002413964396 -0.004169569727 -0.0001445346627
12.15 -0.002413067373 -0.004170077653 -0.0001445506059
12.16 -0.002412170252 -0.004170585395 -0.000144566541
12.17 -0.002411273033 -0.004171092951 -0.0001445824681
12.18 -0.002410375716 -0.004171600322 -0.0001445983871
12.19 -0.002409478301 -0.004172107507 -0.0001446142981
12.2 -0.002408580789 -0.004172614507 -0.0001446302011
12.21 -0.002407683178 -0.004173121321 -0.000144646096
12.22 -0.00240678547 -0.004173627951 -0.0001446619829
12.23 -0.002405887664 -0.004174134394 -0.0001446778617
12.24 -0.00240498976 -0.004174640652 -0.0001446937325
12.25 -0.002404091759 -0.004175146725 -0.0001447095952
12.26 -0.002403193659 -0.004175652613 -0.0001447254499
12.27 -0.002402295463 -0.004176158314 -0.0001447412966
12.28 -0.002401397168 -0.004176663831 -0.0001447571352
12.29 -0.002400498776 -0.004177169162 -0.0001447729658
12.3 -0.002399600287 -0.004177674307 -0.0001447887883
12.31 -0.0023987017 -0.004178179267 -0.0001448046027
12.32 -0.002397803016 -0.004178684041 -0.0001448204092
12.33 -0.002396904234 -0.00417918863 -0.0001448362075
12.34 -0.002396005355 -0.004179693033 -0.0001448519979
12.35 -0.002395106378 -0.00418019725 -0.0001448677801
12.36 -0.002394207304 -0.004180701282 -0.0001448835543
12.37 -0.002393308133 -0.004181205128 -0.0001448993205
12.38 -0.002392408864 -0.004181708789 -0.0001449150786
12.39 -0.002391509499 -0.004182212264 -0.0001449308287
12.4 -0.002390610036 -0.004182715553 -0.0001449465707
12.41 -0.002389710476 -0.004183218657 -0.0001449623047
12.42 -0.002388810818 -0.004183721575 -0.0001449780306
12.43 -0.002387911064 -0.004184224307 -0.0001449937484
12.44 -0.002387011213 -0.004184726854 -0.0001450094582
12.45 -0.002386111264 -0.004185229214 -0.00014502516
12.46 -0.002385211219 -0.004185731389 -0.0001450408537
12.47 -0.002384311076 -0.004186233379 -0.0001450565393
12.48 -0.002383410837 -0.004186735182 -0.0001450722169
12.49 -0.002382510501 -0.0041872368 -0.0001450878864
12.5 -0.002381610068 -0.004187738232 -0.0001451035479
12.51 -0.002380709538 -0.004188239478 -0.0001451192012
12.52 -0.002379808911 -0.004188740538 -0.0001451348466
12.53 -0.002378908187 -0.004189241413 -0.0001451504839
12.54 -0.002378007367 -0.004189742101 -0.0001451661131
12.55 -0.00237710645 -0.004190242604 -0.0001451817342
12.56 -0.002376205436 -0.004190742921 -0.0001451973473
12.57 -0.002375304326 -0.004191243052 -0.0001452129524
12.58 -0.002374403119 -0.004191742997 -0.0001452285493
12.59 -0.002373501816 -0.004192242756 -0.0001452441382
12.6 -0.002372600416 -0.004192742329 -0.0001452597191
12.61 -0.002371698919 -0.004193241717 -0.0001452752919
12.62 -0.002370797326 -0.004193740918 -0.0001452908566
12.63 -0.002369895637 -0.004194239933 -0.0001453064132
12.64 -0.002368993851 -0.004194738762 -0.0001453219618
12.65 -0.002368091969 -0.004195237406 -0.0001453375023
12.66 -0.00236718999 -0.004195735863 -0.0001453530348
12.67 -0.002366287916 -0.004196234134 -0.0001453685591
12.68 -0.002365385744 -0.004196732219 -0.0001453840754
12.69 -0.002364483477 -0.004197230119 -0.0001453995837
12.7 -0.002363581113 -0.004197727832 -0.0001454150839
12.71 -0.002362678654 -0.004198225359 -0.000145430576
12.72 -0.002361776098 -0.0041987227 -0.00014544606
12.73 -0.002360873446 -0.004199219854 -0.0001454615359
12.74 -0.002359970698 -0.004199716823 -0.0001454770038
12.75 -0.002359067853 -0.004200213606 -0.0001454924636
12.76 -0.002358164913 -0.004200710202 -0.0001455079154
12.77 -0.002357261877 -0.004201206612 -0.000145523359
12.78 -0.002356358745 -0.004201702836 -0.0001455387946
12.79 -0.002355455517 -0.004202198874 -0.0001455542222
12.8 -0.002354552193 -0.004202694725 -0.0001455696416
12.81 -0.002353648773 -0.004203190391 -0.000145585053
12.82 -0.002352745258 -0.00420368587 -0.0001456004562
12.83 -0.002351841647 -0.004204181163 -0.0001456158515
12.84 -0.00235093794 -0.00420467627 -0.0001456312386
12.85 -0.002350034137 -0.00420517119 -0.0001456466176
12.86 -0.002349130238 -0.004205665924 -0.0001456619886
12.87 -0.002348226244 -0.004206160472 -0.0001456773515
12.88 -0.002347322154 -0.004206654833 -0.0001456927063
12.89 -0.002346417969 -0.004207149008 -0.0001457080531
12.9 -0.002345513688 -0.004207642997 -0.0001457233917
12.91 -0.002344609312 -0.0042081368 -0.0001457387223
12.92 -0.00234370484 -0.004208630416 -0.0001457540448
12.93 -0.002342800273 -0.004209123845 -0.0001457693592
12.94 -0.00234189561 -0.004209617088 -0.0001457846655
12.95 -0.002340990852 -0.004210110145 -0.0001457999638
12.96 -0.002340085998 -0.004210603016 -0.0001458152539
12.97 -0.002339181049 -0.0042110957 -0.000145830536
12.98 -0.002338276005 -0.004211588197 -0.00014584581
12.99 -0.002337370866 -0.004212080508 -0.0001458610759
13 -0.002336465631 -0.004212572633 -0.0001458763337
13.01 -0.002335560302 -0.004213064571 -0.0001458915834
13.02 -0.002334654877 -0.004213556323 -0.0001459068251
13.03 -0.002333749357 -0.004214047888 -0.0001459220586
13.04 -0.002332843741 -0.004214539266 -0.0001459372841
13.05 -0.002331938031 -0.004215030458 -0.0001459525014
13.06 -0.002331032226 -0.004215521464 -0.0001459677107
13.07 -0.002330126326 -0.004216012283 -0.0001459829119
13.08 -0.002329220331 -0.004216502915 -0.000145998105
13.09 -0.002328314241 -0.00421699336 -0.00014601329
13.1 -0.002327408056 -0.00421748362 -0.0001460284669
13.11 -0.002326501776 -0.004217973692 -0.0001460436358
13.12 -0.002325595401 -0.004218463578 -0.0001460587965
13.13 -0.002324688932 -0.004218953277 -0.0001460739491
13.14 -0.002323782367 -0.004219442789 -0.0001460890937
13.15 -0.002322875708 -0.004219932115 -0.0001461042301
13.16 -0.002321968955 -0.004220421254 -0.0001461193585
13.17 -0.002321062106 -0.004220910207 -0.0001461344787
13.18 -0.002320155164 -0.004221398972 -0.0001461495909
13.19 -0.002319248126 -0.004221887551 -0.0001461646949
13.2 -0.002318340994 -0.004222375943 -0.0001461797909
13.21 -0.002317433767 -0.004222864149 -0.0001461948788
13.22 -0.002316526446 -0.004223352167 -0.0001462099585
13.23 -0.002315619031 -0.004223839999 -0.0001462250302
13.24 -0.002314711521 -0.004224327644 -0.0001462400937
13.25 -0.002313803916 -0.004224815102 -0.0001462551492
13.26 -0.002312896217 -0.004225302374 -0.0001462701966
13.27 -0.002311988424 -0.004225789458 -0.0001462852358
13.28 -0.002311080537 -0.004226276356 -0.000146300267
13.29 -0.002310172555 -0.004226763067 -0.00014631529
13.3 -0.002309264479 -0.004227249591 -0.000146330305
13.31 -0.002308356309 -0.004227735928 -0.0001463453118
13.32 -0.002307448045 -0.004228222078 -0.0001463603106
13.33 -0.002306539686 -0.004228708041 -0.0001463753012
13.34 -0.002305631234 -0.004229193817 -0.0001463902838
13.35 -0.002304722687 -0.004229679407 -0.0001464052582
13.36 -0.002303814047 -0.004230164809 -0.0001464202245
13.37 -0.002302905312 -0.004230650024 -0.0001464351827
13.38 -0.002301996483 -0.004231135053 -0.0001464501328
13.39 -0.002301087561 -0.004231619894 -0.0001464650748
13.4 -0.002300178544 -0.004232104549 -0.0001464800087
13.41 -0.002299269434 -0.004232589016 -0.0001464949345
13.42 -0.00229836023 -0.004233073296 -0.0001465098521
13.43 -0.002297450932 -0.004233557389 -0.0001465247617
13.44 -0.00229654154 -0.004234041296 -0.0001465396631
13.45 -0.002295632055 -0.004234525015 -0.0001465545565
13.46 -0.002294722475 -0.004235008547 -0.0001465694417
13.47 -0.002293812803 -0.004235491891 -0.0001465843188
13.48 -0.002292903036 -0.004235975049 -0.0001465991878
13.49 -0.002291993176 -0.00423645802 -0.0001466140487
13.5 -0.002291083222 -0.004236940803 -0.0001466289014
13.51 -0.002290173175 -0.004237423399 -0.0001466437461
13.52 -0.002289263034 -0.004237905809 -0.0001466585826
13.53 -0.0022883528 -0.00423838803 -0.000146673411
13.54 -0.002287442472 -0.004238870065 -0.0001466882313
13.55 -0.002286532051 -0.004239351913 -0.0001467030435
13.56 -0.002285621537 -0.004239833573 -0.0001467178476
13.57 -0.002284710929 -0.004240315046 -0.0001467326436
13.58 -0.002283800228 -0.004240796332 -0.0001467474314
13.59 -0.002282889434 -0.00424127743 -0.0001467622111
13.6 -0.002281978546 -0.004241758341 -0.0001467769827
13.61 -0.002281067565 -0.004242239065 -0.0001467917461
13.62 -0.002280156491 -0.004242719602 -0.0001468065015
13.63 -0.002279245324 -0.004243199951 -0.0001468212487
13.64 -0.002278334064 -0.004243680113 -0.0001468359878
13.65 -0.00227742271 -0.004244160087 -0.0001468507188
13.66 -0.002276511264 -0.004244639875 -0.0001468654417
13.67 -0.002275599724 -0.004245119474 -0.0001468801564
13.68 -0.002274688092 -0.004245598887 -0.000146894863
13.69 -0.002273776367 -0.004246078112 -0.0001469095615
13.7 -0.002272864548 -0.004246557149 -0.0001469242519
13.71 -0.002271952637 -0.004247036 -0.0001469389341
13.72 -0.002271040633 -0.004247514662 -0.0001469536082
13.73 -0.002270128536 -0.004247993138 -0.0001469682742
13.74 -0.002269216347 -0.004248471425 -0.000146982932
13.75 -0.002268304064 -0.004248949526 -0.0001469975818
13.76 -0.002267391689 -0.004249427438 -0.0001470122234
13.77 -0.002266479221 -0.004249905164 -0.0001470268568
13.78 -0.002265566661 -0.004250382701 -0.0001470414822
13.79 -0.002264654008 -0.004250860052 -0.0001470560994
13.8 -0.002263741262 -0.004251337214 -0.0001470707084
13.81 -0.002262828424 -0.004251814189 -0.0001470853094
13.82 -0.002261915493 -0.004252290977 -0.0001470999022
13.83 -0.00226100247 -0.004252767577 -0.0001471144869
13.84 -0.002260089354 -0.004253243989 -0.0001471290634
13.85 -0.002259176146 -0.004253720214 -0.0001471436318
13.86 -0.002258262846 -0.004254196251 -0.0001471581921
13.87 -0.002257349453 -0.0042546721 -0.0001471727442
13.88 -0.002256435968 -0.004255147762 -0.0001471872883
13.89 -0.00225552239 -0.004255623236 -0.0001472018241
13.9 -0.002254608721 -0.004256098523 -0.0001472163519
13.91 -0.002253694959 -0.004256573621 -0.0001472308715
13.92 -0.002252781104 -0.004257048532 -0.0001472453829
13.93 -0.002251867158 -0.004257523256 -0.0001472598862
13.94 -0.00225095312 -0.004257997791 -0.0001472743814
13.95 -0.002250038989 -0.004258472139 -0.0001472888685
13.96 -0.002249124767 -0.004258946299 -0.0001473033474
13.97 -0.002248210452 -0.004259420271 -0.0001473178181
13.98 -0.002247296045 -0.004259894056 -0.0001473322808
13.99 -0.002246381547 -0.004260367652 -0.0001473467353
14 -0.002245466956 -0.004260841061 -0.0001473611816
14.01 -0.002244552274 -0.004261314282 -0.0001473756198
14.02 -0.002243637499 -0.004261787315 -0.0001473900498
14.03 -0.002242722633 -0.004262260161 -0.0001474044718
14.04 -0.002241807675 -0.004262732818 -0.0001474188855
14.05 -0.002240892626 -0.004263205288 -0.0001474332912
14.06 -0.002239977484 -0.004263677569 -0.0001474476886
14.07 -0.002239062251 -0.004264149663 -0.000147462078
14.08 -0.002238146926 -0.004264621569 -0.0001474764592
14.09 -0.00223723151 -0.004265093287 -0.0001474908322
14.1 -0.002236316002 -0.004265564817 -0.0001475051971
14.11 -0.002235400402 -0.004266036159 -0.0001475195538
14.12 -0.002234484711 -0.004266507313 -0.0001475339024
14.13 -0.002233568929 -0.004266978279 -0.0001475482429
14.14 -0.002232653054 -0.004267449057 -0.0001475625752
14.15 -0.002231737089 -0.004267919647 -0.0001475768993
14.16 -0.002230821032 -0.004268390049 -0.0001475912153
14.17 -0.002229904884 -0.004268860262 -0.0001476055232
14.18 -0.002228988644 -0.004269330288 -0.0001476198229
14.19 -0.002228072313 -0.004269800126 -0.0001476341144
14.2 -0.002227155891 -0.004270269776 -0.0001476483978
14.21 -0.002226239377 -0.004270739237 -0.0001476626731
14.22 -0.002225322773 -0.004271208511 -0.0001476769402
14.23 -0.002224406077 -0.004271677596 -0.0001476911991
14.24 -0.00222348929 -0.004272146494 -0.0001477054499
14.25 -0.002222572412 -0.004272615203 -0.0001477196925
14.26 -0.002221655442 -0.004273083724 -0.000147733927
14.27 -0.002220738382 -0.004273552056 -0.0001477481533
14.28 -0.002219821231 -0.004274020201 -0.0001477623714
14.29 -0.002218903989 -0.004274488157 -0.0001477765814
14.3 -0.002217986655 -0.004274955925 -0.0001477907833
14.31 -0.002217069231 -0.004275423505 -0.0001478049769
14.32 -0.002216151716 -0.004275890897 -0.0001478191625
14.33 -0.002215234111 -0.0042763581 -0.0001478333398
14.34 -0.002214316414 -0.004276825116 -0.000147847509
14.35 -0.002213398627 -0.004277291943 -0.0001478616701
14.36 -0.002212480748 -0.004277758581 -0.0001478758229
14.37 -0.00221156278 -0.004278225031 -0.0001478899677
14.38 -0.00221064472 -0.004278691293 -0.0001479041042
14.39 -0.00220972657 -0.004279157367 -0.0001479182326
14.4 -0.002208808329 -0.004279623252 -0.0001479323528
14.41 -0.002207889998 -0.004280088949 -0.0001479464649
14.42 -0.002206971576 -0.004280554458 -0.0001479605688
14.43 -0.002206053063 -0.004281019778 -0.0001479746645
14.44 -0.00220513446 -0.00428148491 -0.0001479887521
14.45 -0.002204215767 -0.004281949853 -0.0001480028315
14.46 -0.002203296983 -0.004282414608 -0.0001480169028
14.47 -0.002202378109 -0.004282879175 -0.0001480309658
14.48 -0.002201459144 -0.004283343553 -0.0001480450207
14.49 -0.002200540089 -0.004283807742 -0.0001480590675
14.5 -0.002199620944 -0.004284271743 -0.000148073106
14.51 -0.002198701709 -0.004284735556 -0.0001480871365
14.52 -0.002197782383 -0.00428519918 -0.0001481011587
14.53 -0.002196862967 -0.004285662616 -0.0001481151727
14.54 -0.002195943461 -0.004286125863 -0.0001481291786
14.55 -0.002195023865 -0.004286588921 -0.0001481431764
14.56 -0.002194104179 -0.004287051791 -0.0001481571659
14.57 -0.002193184403 -0.004287514473 -0.0001481711473
14.58 -0.002192264536 -0.004287976966 -0.0001481851205
14.59 -0.00219134458 -0.00428843927 -0.0001481990855
14.6 -0.002190424534 -0.004288901385 -0.0001482130424
14.61 -0.002189504398 -0.004289363312 -0.000148226991
14.62 -0.002188584172 -0.004289825051 -0.0001482409315
14.63 -0.002187663856 -0.004290286601 -0.0001482548639
14.64 -0.00218674345 -0.004290747962 -0.000148268788
14.65 -0.002185822954 -0.004291209134 -0.000148282704
14.66 -0.002184902369 -0.004291670118 -0.0001482966118
14.67 -0.002183981694 -0.004292130913 -0.0001483105114
14.68 -0.002183060929 -0.004292591519 -0.0001483244029
14.69 -0.002182140075 -0.004293051937 -0.0001483382862
14.7 -0.002181219131 -0.004293512165 -0.0001483521612
14.71 -0.002180298097 -0.004293972206 -0.0001483660282
14.72 -0.002179376974 -0.004294432057 -0.0001483798869
14.73 -0.002178455761 -0.004294891719 -0.0001483937374
14.74 -0.002177534459 -0.004295351193 -0.0001484075798
14.75 -0.002176613067 -0.004295810478 -0.000148421414
14.76 -0.002175691586 -0.004296269574 -0.00014843524
14.77 -0.002174770016 -0.004296728482 -0.0001484490578
14.78 -0.002173848356 -0.0042971872 -0.0001484628674
14.79 -0.002172926607 -0.00429764573 -0.0001484766689
14.8 -0.002172004768 -0.00429810407 -0.0001484904622
14.81 -0.00217108284 -0.004298562222 -0.0001485042473
14.82 -0.002170160823 -0.004299020185 -0.0001485180242
14.83 -0.002169238717 -0.004299477959 -0.0001485317929
14.84 -0.002168316521 -0.004299935544 -0.0001485455534
14.85 -0.002167394237 -0.004300392941 -0.0001485593057
14.86 -0.002166471863 -0.004300850148 -0.0001485730499
14.87 -0.002165549401 -0.004301307166 -0.0001485867859
14.88 -0.002164626849 -0.004301763995 -0.0001486005136
14.89 -0.002163704208 -0.004302220636 -0.0001486142332
14.9 -0.002162781478 -0.004302677087 -0.0001486279446
14.91 -0.002161858659 -0.004303133349 -0.0001486416478
14.92 -0.002160935752 -0.004303589423 -0.0001486553429
14.93 -0.002160012755 -0.004304045307 -0.0001486690297
14.94 -0.00215908967 -0.004304501002 -0.0001486827083
14.95 -0.002158166496 -0.004304956508 -0.0001486963788
14.96 -0.002157243233 -0.004305411825 -0.000148710041
14.97 -0.002156319881 -0.004305866953 -0.0001487236951
14.98 -0.002155396441 -0.004306321892 -0.0001487373409
14.99 -0.002154472912 -0.004306776642 -0.0001487509786
15 -0.002153549294 -0.004307231203 -0.0001487646081
15.01 -0.002152625588 -0.004307685574 -0.0001487782294
15.02 -0.002151701793 -0.004308139756 -0.0001487918424
15.03 -0.00215077791 -0.00430859375 -0.0001488054473
15.04 -0.002149853938 -0.004309047554 -0.000148819044
15.05 -0.002148929877 -0.004309501168 -0.0001488326325
15.06 -0.002148005728 -0.004309954594 -0.0001488462128
15.07 -0.002147081491 -0.00431040783 -0.0001488597849
15.08 -0.002146157165 -0.004310860877 -0.0001488733488
15.09 -0.002145232751 -0.004311313735 -0.0001488869045
15.1 -0.002144308249 -0.004311766404 -0.000148900452
15.11 -0.002143383658 -0.004312218883 -0.0001489139913
15.12 -0.002142458979 -0.004312671173 -0.0001489275224
15.13 -0.002141534212 -0.004313123274 -0.0001489410453
15.14 -0.002140609357 -0.004313575186 -0.00014895456
15.15 -0.002139684413 -0.004314026908 -0.0001489680665
15.16 -0.002138759382 -0.004314478441 -0.0001489815648
15.17 -0.002137834262 -0.004314929784 -0.0001489950549
15.18 -0.002136909055 -0.004315380938 -0.0001490085368
15.19 -0.002135983759 -0.004315831903 -0.0001490220104
15.2 -0.002135058375 -0.004316282678 -0.0001490354759
15.21 -0.002134132903 -0.004316733264 -0.0001490489332
15.22 -0.002133207344 -0.004317183661 -0.0001490623822
15.23 -0.002132281696 -0.004317633868 -0.0001490758231
15.24 -0.002131355961 -0.004318083885 -0.0001490892557
15.25 -0.002130430138 -0.004318533714 -0.0001491026802
15.26 -0.002129504227 -0.004318983352 -0.0001491160964
15.27 -0.002128578228 -0.004319432802 -0.0001491295044
15.28 -0.002127652142 -0.004319882061 -0.0001491429043
15.29 -0.002126725967 -0.004320331132 -0.0001491562959
15.3 -0.002125799706 -0.004320780012 -0.0001491696793
15.31 -0.002124873356 -0.004321228704 -0.0001491830545
15.32 -0.002123946919 -0.004321677205 -0.0001491964214
15.33 -0.002123020394 -0.004322125517 -0.0001492097802
15.34 -0.002122093782 -0.00432257364 -0.0001492231307
15.35 -0.002121167083 -0.004323021573 -0.0001492364731
15.36 -0.002120240296 -0.004323469316 -0.0001492498072
15.37 -0.002119313421 -0.00432391687 -0.0001492631331
15.38 -0.002118386459 -0.004324364234 -0.0001492764508
15.39 -0.00211745941 -0.004324811409 -0.0001492897603
15.4 -0.002116532273 -0.004325258393 -0.0001493030616
15.41 -0.002115605049 -0.004325705189 -0.0001493163546
15.42 -0.002114677738 -0.004326151794 -0.0001493296394
15.43 -0.00211375034 -0.00432659821 -0.0001493429161
15.44 -0.002112822854 -0.004327044436 -0.0001493561845
15.45 -0.002111895281 -0.004327490473 -0.0001493694446
15.46 -0.002110967621 -0.004327936319 -0.0001493826966
15.47 -0.002110039874 -0.004328381976 -0.0001493959404
15.48 -0.00210911204 -0.004328827444 -0.0001494091759
15.49 -0.002108184119 -0.004329272721 -0.0001494224032
15.5 -0.002107256111 -0.004329717809 -0.0001494356223
15.51 -0.002106328016 -0.004330162707 -0.0001494488331
15.52 -0.002105399834 -0.004330607415 -0.0001494620358
15.53 -0.002104471565 -0.004331051933 -0.0001494752302
15.54 -0.002103543209 -0.004331496262 -0.0001494884164
15.55 -0.002102614766 -0.0043319404 -0.0001495015944
15.56 -0.002101686236 -0.004332384349 -0.0001495147641
15.57 -0.00210075762 -0.004332828108 -0.0001495279257
15.58 -0.002099828917 -0.004333271677 -0.000149541079
15.59 -0.002098900127 -0.004333715056 -0.0001495542241
15.6 -0.002097971251 -0.004334158245 -0.0001495673609
15.61 -0.002097042288 -0.004334601245 -0.0001495804896
15.62 -0.002096113238 -0.004335044054 -0.00014959361
15.63 -0.002095184102 -0.004335486673 -0.0001496067221
15.64 -0.002094254879 -0.004335929103 -0.0001496198261
15.65 -0.00209332557 -0.004336371342 -0.0001496329218
15.66 -0.002092396174 -0.004336813392 -0.0001496460093
15.67 -0.002091466692 -0.004337255252 -0.0001496590886
15.68 -0.002090537123 -0.004337696921 -0.0001496721596
15.69 -0.002089607468 -0.004338138401 -0.0001496852224
15.7 -0.002088677727 -0.00433857969 -0.000149698277
15.71 -0.002087747899 -0.00433902079 -0.0001497113233
15.72 -0.002086817985 -0.004339461699 -0.0001497243614
15.73 -0.002085887985 -0.004339902418 -0.0001497373913
15.74 -0.002084957899 -0.004340342948 -0.000149750413
15.75 -0.002084027726 -0.004340783287 -0.0001497634264
15.76 -0.002083097467 -0.004341223436 -0.0001497764316
15.77 -0.002082167122 -0.004341663395 -0.0001497894285
15.78 -0.002081236691 -0.004342103164 -0.0001498024172
15.79 -0.002080306174 -0.004342542742 -0.0001498153977
15.8 -0.002079375571 -0.004342982131 -0.00014982837
15.81 -0.002078444882 -0.004343421329 -0.000149841334
15.82 -0.002077514107 -0.004343860337 -0.0001498542897
15.83 -0.002076583246 -0.004344299155 -0.0001498672373
15.84 -0.002075652299 -0.004344737783 -0.0001498801766
15.85 -0.002074721267 -0.00434517622 -0.0001498931076
15.86 -0.002073790148 -0.004345614468 -0.0001499060304
15.87 -0.002072858944 -0.004346052525 -0.000149918945
15.88 -0.002071927654 -0.004346490391 -0.0001499318514
15.89 -0.002070996278 -0.004346928068 -0.0001499447495
15.9 -0.002070064816 -0.004347365554 -0.0001499576393
15.91 -0.002069133269 -0.00434780285 -0.0001499705209
15.92 -0.002068201637 -0.004348239955 -0.0001499833943
15.93 -0.002067269918 -0.004348676871 -0.0001499962595
15.94 -0.002066338114 -0.004349113596 -0.0001500091164
15.95 -0.002065406225 -0.00434955013 -0.000150021965
15.96 -0.00206447425 -0.004349986474 -0.0001500348054
15.97 -0.002063542189 -0.004350422628 -0.0001500476376
15.98 -0.002062610044 -0.004350858592 -0.0001500604615
15.99 -0.002061677812 -0.004351294365 -0.0001500732772
16 -0.002060745496 -0.004351729947 -0.0001500860846
16.01 -0.002059813094 -0.004352165339 -0.0001500988838
16.02 -0.002058880607 -0.004352600541 -0.0001501116747
16.03 -0.002057948034 -0.004353035553 -0.0001501244574
16.04 -0.002057015376 -0.004353470373 -0.0001501372319
16.05 -0.002056082633 -0.004353905004 -0.0001501499981
16.06 -0.002055149805 -0.004354339444 -0.000150162756
16.07 -0.002054216892 -0.004354773693 -0.0001501755057
16.08 -0.002053283894 -0.004355207752 -0.0001501882472
16.09 -0.00205235081 -0.00435564162 -0.0001502009804
16.1 -0.002051417642 -0.004356075298 -0.0001502137053
16.11 -0.002050484388 -0.004356508785 -0.000150226422
16.12 -0.00204955105 -0.004356942082 -0.0001502391305
16.13 -0.002048617626 -0.004357375188 -0.0001502518306
16.14 -0.002047684118 -0.004357808103 -0.0001502645226
16.15 -0.002046750525 -0.004358240828 -0.0001502772063
16.16 -0.002045816847 -0.004358673363 -0.0001502898817
16.17 -0.002044883084 -0.004359105706 -0.0001503025489
16.18 -0.002043949237 -0.004359537859 -0.0001503152078
16.19 -0.002043015304 -0.004359969821 -0.0001503278585
16.2 -0.002042081287 -0.004360401593 -0.0001503405009
16.21 -0.002041147186 -0.004360833174 -0.0001503531351
16.22 -0.002040212999 -0.004361264564 -0.000150365761
16.23 -0.002039278728 -0.004361695764 -0.0001503783786
16.24 -0.002038344373 -0.004362126773 -0.000150390988
16.25 -0.002037409933 -0.004362557591 -0.0001504035892
16.26 -0.002036475408 -0.004362988218 -0.000150416182
16.27 -0.002035540799 -0.004363418655 -0.0001504287667
16.28 -0.002034606105 -0.004363848901 -0.000150441343
16.29 -0.002033671327 -0.004364278956 -0.0001504539111
16.3 -0.002032736465 -0.00436470882 -0.000150466471
16.31 -0.002031801518 -0.004365138494 -0.0001504790225
16.32 -0.002030866487 -0.004365567976 -0.0001504915658
16.33 -0.002029931372 -0.004365997268 -0.0001505041009
16.34 -0.002028996173 -0.004366426369 -0.0001505166277
16.35 -0.002028060889 -0.004366855279 -0.0001505291462
16.36 -0.002027125521 -0.004367283998 -0.0001505416565
16.37 -0.002026190069 -0.004367712527 -0.0001505541585
16.38 -0.002025254533 -0.004368140864 -0.0001505666522
16.39 -0.002024318912 -0.004368569011 -0.0001505791377
16.4 -0.002023383208 -0.004368996967 -0.0001505916149
16.41 -0.00202244742 -0.004369424731 -0.0001506040839
16.42 -0.002021511547 -0.004369852305 -0.0001506165445
16.43 -0.002020575591 -0.004370279688 -0.0001506289969
16.44 -0.002019639551 -0.00437070688 -0.0001506414411
16.45 -0.002018703427 -0.00437113388 -0.000150653877
16.46 -0.002017767219 -0.00437156069 -0.0001506663046
16.47 -0.002016830927 -0.004371987309 -0.0001506787239
16.48 -0.002015894551 -0.004372413737 -0.000150691135
16.49 -0.002014958092 -0.004372839974 -0.0001507035378
16.5 -0.002014021549 -0.004373266019 -0.0001507159323
16.51 -0.002013084922 -0.004373691874 -0.0001507283186
16.52 -0.002012148212 -0.004374117538 -0.0001507406966
16.53 -0.002011211418 -0.00437454301 -0.0001507530663
16.54 -0.00201027454 -0.004374968292 -0.0001507654277
16.55 -0.002009337579 -0.004375393382 -0.0001507777809
16.56 -0.002008400534 -0.004375818281 -0.0001507901258
16.57 -0.002007463406 -0.004376242989 -0.0001508024624
16.58 -0.002006526194 -0.004376667506 -0.0001508147908
16.59 -0.002005588899 -0.004377091832 -0.0001508271109
16.6 -0.00200465152 -0.004377515966 -0.0001508394227
16.61 -0.002003714059 -0.00437793991 -0.0001508517262
16.62 -0.002002776513 -0.004378363662 -0.0001508640215
16.63 -0.002001838885 -0.004378787223 -0.0001508763084
16.64 -0.002000901173 -0.004379210592 -0.0001508885871
16.65 -0.001999963378 -0.004379633771 -0.0001509008576
16.66 -0.0019990255 -0.004380056758 -0.0001509131197
16.67 -0.001998087538 -0.004380479554 -0.0001509253736
16.68 -0.001997149494 -0.004380902159 -0.0001509376192
16.69 -0.001996211366 -0.004381324572 -0.0001509498565
16.7 -0.001995273155 -0.004381746794 -0.0001509620855
16.71 -0.001994334862 -0.004382168825 -0.0001509743063
16.72 -0.001993396485 -0.004382590665 -0.0001509865187
16.73 -0.001992458025 -0.004383012313 -0.0001509987229
16.74 -0.001991519482 -0.00438343377 -0.0001510109188
16.75 -0.001990580857 -0.004383855035 -0.0001510231064
16.76 -0.001989642148 -0.004384276109 -0.0001510352858
16.77 -0.001988703357 -0.004384696992 -0.0001510474568
16.78 -0.001987764483 -0.004385117683 -0.0001510596196
16.79 -0.001986825526 -0.004385538183 -0.0001510717741
16.8 -0.001985886487 -0.004385958491 -0.0001510839203
16.81 -0.001984947364 -0.004386378608 -0.0001510960582
16.82 -0.001984008159 -0.004386798534 -0.0001511081879
16.83 -0.001983068872 -0.004387218268 -0.0001511203092
16.84 -0.001982129501 -0.00438763781 -0.0001511324223
16.85 -0.001981190048 -0.004388057162 -0.0001511445271
16.86 -0.001980250513 -0.004388476321 -0.0001511566236
16.87 -0.001979310895 -0.004388895289 -0.0001511687118
16.88 -0.001978371195 -0.004389314066 -0.0001511807917
16.89 -0.001977431412 -0.004389732651 -0.0001511928633
16.9 -0.001976491547 -0.004390151044 -0.0001512049266
16.91 -0.001975551599 -0.004390569246 -0.0001512169817
16.92 -0.001974611569 -0.004390987257 -0.0001512290284
16.93 -0.001973671457 -0.004391405075 -0.0001512410669
16.94 -0.001972731262 -0.004391822702 -0.0001512530971
16.95 -0.001971790985 -0.004392240138 -0.000151265119
16.96 -0.001970850626 -0.004392657382 -0.0001512771325
16.97 -0.001969910185 -0.004393074434 -0.0001512891378
16.98 -0.001968969662 -0.004393491295 -0.0001513011348
16.99 -0.001968029056 -0.004393907964 -0.0001513131236
17 -0.001967088369 -0.004394324441 -0.000151325104
17.01 -0.001966147599 -0.004394740727 -0.0001513370761
17.02 -0.001965206747 -0.004395156821 -0.0001513490399
17.03 -0.001964265814 -0.004395572723 -0.0001513609955
17.04 -0.001963324798 -0.004395988433 -0.0001513729427
17.05 -0.0019623837 -0.004396403952 -0.0001513848816
17.06 -0.001961442521 -0.004396819279 -0.0001513968123
17.07 -0.00196050126 -0.004397234414 -0.0001514087346
17.08 -0.001959559917 -0.004397649358 -0.0001514206487
17.09 -0.001958618492 -0.004398064109 -0.0001514325544
17.1 -0.001957676985 -0.004398478669 -0.0001514444519
17.11 -0.001956735397 -0.004398893037 -0.000151456341
17.12 -0.001955793727 -0.004399307213 -0.0001514682219
17.13 -0.001954851975 -0.004399721198 -0.0001514800944
17.14 -0.001953910142 -0.00440013499 -0.0001514919587
17.15 -0.001952968227 -0.004400548591 -0.0001515038146
17.16 -0.00195202623 -0.004400962 -0.0001515156623
17.17 -0.001951084152 -0.004401375216 -0.0001515275016
17.18 -0.001950141992 -0.004401788241 -0.0001515393326
17.19 -0.001949199751 -0.004402201075 -0.0001515511554
17.2 -0.001948257429 -0.004402613716 -0.0001515629698
17.21 -0.001947315025 -0.004403026165 -0.000151574776
17.22 -0.00194637254 -0.004403438422 -0.0001515865738
17.23 -0.001945429973 -0.004403850487 -0.0001515983633
17.24 -0.001944487325 -0.004404262361 -0.0001516101445
17.25 -0.001943544596 -0.004404674042 -0.0001516219174
17.26 -0.001942601786 -0.004405085531 -0.000151633682
17.27 -0.001941658894 -0.004405496829 -0.0001516454383
17.28 -0.001940715922 -0.004405907934 -0.0001516571863
17.29 -0.001939772868 -0.004406318847 -0.000151668926
17.3 -0.001938829733 -0.004406729568 -0.0001516806574
17.31 -0.001937886517 -0.004407140098 -0.0001516923804
17.32 -0.00193694322 -0.004407550435 -0.0001517040952
17.33 -0.001935999842 -0.00440796058 -0.0001517158016
17.34 -0.001935056383 -0.004408370533 -0.0001517274998
17.35 -0.001934112843 -0.004408780293 -0.0001517391896
17.36 -0.001933169222 -0.004409189862 -0.0001517508711
17.37 -0.00193222552 -0.004409599239 -0.0001517625443
17.38 -0.001931281737 -0.004410008423 -0.0001517742092
17.39 -0.001930337874 -0.004410417415 -0.0001517858658
17.4 -0.00192939393 -0.004410826215 -0.0001517975141
17.41 -0.001928449905 -0.004411234823 -0.000151809154
17.42 -0.001927505799 -0.004411643239 -0.0001518207857
17.43 -0.001926561613 -0.004412051462 -0.000151832409
17.44 -0.001925617346 -0.004412459493 -0.000151844024
17.45 -0.001924672998 -0.004412867332 -0.0001518556307
17.46 -0.00192372857 -0.004413274979 -0.0001518672291
17.47 -0.001922784061 -0.004413682433 -0.0001518788191
17.48 -0.001921839472 -0.004414089696 -0.0001518904009
17.49 -0.001920894802 -0.004414496765 -0.0001519019743
17.5 -0.001919950052 -0.004414903643 -0.0001519135394
17.51 -0.001919005222 -0.004415310328 -0.0001519250962
17.52 -0.001918060311 -0.004415716821 -0.0001519366447
17.53 -0.001917115319 -0.004416123122 -0.0001519481848
17.54 -0.001916170248 -0.00441652923 -0.0001519597167
17.55 -0.001915225096 -0.004416935146 -0.0001519712402
17.56 -0.001914279864 -0.00441734087 -0.0001519827554
17.57 -0.001913334551 -0.004417746401 -0.0001519942623
17.58 -0.001912389159 -0.00441815174 -0.0001520057608
17.59 -0.001911443686 -0.004418556886 -0.000152017251
17.6 -0.001910498133 -0.00441896184 -0.000152028733
17.61 -0.0019095525 -0.004419366602 -0.0001520402065
17.62 -0.001908606787 -0.004419771171 -0.0001520516718
17.63 -0.001907660994 -0.004420175547 -0.0001520631287
17.64 -0.001906715121 -0.004420579731 -0.0001520745774
17.65 -0.001905769168 -0.004420983723 -0.0001520860176
17.66 -0.001904823135 -0.004421387522 -0.0001520974496
17.67 -0.001903877022 -0.004421791129 -0.0001521088733
17.68 -0.00190293083 -0.004422194543 -0.0001521202886
17.69 -0.001901984557 -0.004422597765 -0.0001521316956
17.7 -0.001901038205 -0.004423000794 -0.0001521430942
17.71 -0.001900091773 -0.00442340363 -0.0001521544846
17.72 -0.001899145261 -0.004423806274 -0.0001521658666
17.73 -0.00189819867 -0.004424208725 -0.0001521772402
17.74 -0.001897251999 -0.004424610984 -0.0001521886056
17.75 -0.001896305248 -0.00442501305 -0.0001521999626
17.76 -0.001895358418 -0.004425414924 -0.0001522113113
17.77 -0.001894411508 -0.004425816605 -0.0001522226517
17.78 -0.001893464518 -0.004426218093 -0.0001522339837
17.79 -0.001892517449 -0.004426619388 -0.0001522453074
17.8 -0.001891570301 -0.004427020491 -0.0001522566228
17.81 -0.001890623073 -0.004427421402 -0.0001522679298
17.82 -0.001889675766 -0.004427822119 -0.0001522792285
17.83 -0.001888728379 -0.004428222644 -0.0001522905189
17.84 -0.001887780914 -0.004428622976 -0.0001523018009
17.85 -0.001886833368 -0.004429023115 -0.0001523130746
17.86 -0.001885885744 -0.004429423062 -0.00015232434
17.87 -0.00188493804 -0.004429822816 -0.000152335597
17.88 -0.001883990257 -0.004430222377 -0.0001523468457
17.89 -0.001883042395 -0.004430621745 -0.0001523580861
17.9 -0.001882094454 -0.004431020921 -0.0001523693181
17.91 -0.001881146434 -0.004431419904 -0.0001523805418
17.92 -0.001880198334 -0.004431818694 -0.0001523917571
17.93 -0.001879250156 -0.004432217291 -0.0001524029641
17.94 -0.001878301898 -0.004432615695 -0.0001524141628
17.95 -0.001877353562 -0.004433013906 -0.0001524253532
17.96 -0.001876405146 -0.004433411925 -0.0001524365352
17.97 -0.001875456652 -0.004433809751 -0.0001524477088
17.98 -0.001874508079 -0.004434207383 -0.0001524588741
17.99 -0.001873559427 -0.004434604823 -0.0001524700311
18 -0.001872610696 -0.00443500207 -0.0001524811798
18.01 -0.001871661887 -0.004435399124 -0.0001524923201
18.02 -0.001870712998 -0.004435795985 -0.000152503452
18.03 -0.001869764031 -0.004436192653 -0.0001525145756
18.04 -0.001868814986 -0.004436589129 -0.0001525256909
18.05 -0.001867865861 -0.004436985411 -0.0001525367978
18.06 -0.001866916658 -0.0044373815 -0.0001525478964
18.07 -0.001865967377 -0.004437777396 -0.0001525589867
18.08 -0.001865018017 -0.004438173099 -0.0001525700686
18.09 -0.001864068578 -0.00443856861 -0.0001525811421
18.1 -0.001863119061 -0.004438963927 -0.0001525922073
18.11 -0.001862169465 -0.004439359051 -0.0001526032642
18.12 -0.001861219791 -0.004439753982 -0.0001526143127
18.13 -0.001860270039 -0.00444014872 -0.0001526253529
18.14 -0.001859320208 -0.004440543265 -0.0001526363847
18.15 -0.001858370299 -0.004440937616 -0.0001526474082
18.16 -0.001857420312 -0.004441331775 -0.0001526584233
18.17 -0.001856470246 -0.004441725741 -0.0001526694301
18.18 -0.001855520103 -0.004442119513 -0.0001526804285
18.19 -0.001854569881 -0.004442513092 -0.0001526914186
18.2 -0.001853619581 -0.004442906478 -0.0001527024003
18.21 -0.001852669202 -0.004443299671 -0.0001527133737
18.22 -0.001851718746 -0.004443692671 -0.0001527243388
18.23 -0.001850768212 -0.004444085478 -0.0001527352954
18.24 -0.001849817599 -0.004444478091 -0.0001527462438
18.25 -0.001848866909 -0.004444870511 -0.0001527571837
18.26 -0.001847916141 -0.004445262738 -0.0001527681154
18.27 -0.001846965294 -0.004445654772 -0.0001527790386
18.28 -0.00184601437 -0.004446046612 -0.0001527899535
18.29 -0.001845063368 -0.004446438259 -0.0001528008601
18.3 -0.001844112288 -0.004446829713 -0.0001528117583
18.31 -0.001843161131 -0.004447220973 -0.0001528226482
18.32 -0.001842209895 -0.004447612041 -0.0001528335297
18.33 -0.001841258582 -0.004448002914 -0.0001528444028
18.34 -0.001840307191 -0.004448393595 -0.0001528552676
18.35 -0.001839355723 -0.004448784082 -0.000152866124
18.36 -0.001838404177 -0.004449174376 -0.0001528769721
18.37 -0.001837452553 -0.004449564477 -0.0001528878118
18.38 -0.001836500852 -0.004449954384 -0.0001528986432
18.39 -0.001835549073 -0.004450344097 -0.0001529094662
18.4 -0.001834597216 -0.004450733618 -0.0001529202808
18.41 -0.001833645283 -0.004451122945 -0.0001529310871
18.42 -0.001832693271 -0.004451512078 -0.000152941885
18.43 -0.001831741183 -0.004451901018 -0.0001529526746
18.44 -0.001830789017 -0.004452289765 -0.0001529634558
18.45 -0.001829836774 -0.004452678318 -0.0001529742286
18.46 -0.001828884453 -0.004453066678 -0.0001529849931
18.47 -0.001827932055 -0.004453454844 -0.0001529957492
18.48 -0.00182697958 -0.004453842816 -0.000153006497
18.49 -0.001826027028 -0.004454230595 -0.0001530172364
18.5 -0.001825074398 -0.004454618181 -0.0001530279674
18.51 -0.001824121691 -0.004455005573 -0.0001530386901
18.52 -0.001823168908 -0.004455392772 -0.0001530494044
18.53 -0.001822216047 -0.004455779777 -0.0001530601103
18.54 -0.001821263109 -0.004456166588 -0.0001530708079
18.55 -0.001820310094 -0.004456553206 -0.0001530814971
18.56 -0.001819357002 -0.00445693963 -0.000153092178
18.57 -0.001818403834 -0.004457325861 -0.0001531028504
18.58 -0.001817450588 -0.004457711898 -0.0001531135145
18.59 -0.001816497265 -0.004458097741 -0.0001531241703
18.6 -0.001815543866 -0.004458483391 -0.0001531348177
18.61 -0.00181459039 -0.004458868847 -0.0001531454567
18.62 -0.001813636837 -0.004459254109 -0.0001531560873
18.63 -0.001812683207 -0.004459639178 -0.0001531667096
18.64 -0.001811729501 -0.004460024053 -0.0001531773235
18.65 -0.001810775718 -0.004460408734 -0.000153187929
18.66 -0.001809821858 -0.004460793221 -0.0001531985261
18.67 -0.001808867921 -0.004461177515 -0.0001532091149
18.68 -0.001807913908 -0.004461561615 -0.0001532196953
18.69 -0.001806959819 -0.004461945522 -0.0001532302674
18.7 -0.001806005653 -0.004462329234 -0.0001532408311
18.71 -0.00180505141 -0.004462712753 -0.0001532513864
18.72 -0.001804097091 -0.004463096078 -0.0001532619333
18.73 -0.001803142696 -0.004463479209 -0.0001532724718
18.74 -0.001802188224 -0.004463862146 -0.000153283002
18.75 -0.001801233676 -0.00446424489 -0.0001532935238
18.76 -0.001800279052 -0.00446462744 -0.0001533040373
18.77 -0.001799324351 -0.004465009795 -0.0001533145423
18.78 -0.001798369574 -0.004465391957 -0.000153325039
18.79 -0.001797414721 -0.004465773925 -0.0001533355273
18.8 -0.001796459792 -0.0044661557 -0.0001533460072
18.81 -0.001795504786 -0.00446653728 -0.0001533564788
18.82 -0.001794549704 -0.004466918666 -0.0001533669419
18.83 -0.001793594547 -0.004467299859 -0.0001533773967
18.84 -0.001792639313 -0.004467680857 -0.0001533878432
18.85 -0.001791684003 -0.004468061662 -0.0001533982812
18.86 -0.001790728617 -0.004468442272 -0.0001534087109
18.87 -0.001789773156 -0.004468822689 -0.0001534191321
18.88 -0.001788817618 -0.004469202911 -0.000153429545
18.89 -0.001787862004 -0.00446958294 -0.0001534399496
18.9 -0.001786906315 -0.004469962775 -0.0001534503457
18.91 -0.00178595055 -0.004470342415 -0.0001534607334
18.92 -0.001784994709 -0.004470721862 -0.0001534711128
18.93 -0.001784038792 -0.004471101114 -0.0001534814838
18.94 -0.001783082799 -0.004471480173 -0.0001534918464
18.95 -0.001782126731 -0.004471859037 -0.0001535022007
18.96 -0.001781170587 -0.004472237707 -0.0001535125465
18.97 -0.001780214368 -0.004472616184 -0.000153522884
18.98 -0.001779258073 -0.004472994466 -0.000153533213
18.99 -0.001778301702 -0.004473372554 -0.0001535435337
19 -0.001777345256 -0.004473750448 -0.000153553846
19.01 -0.001776388734 -0.004474128147 -0.0001535641499
19.02 -0.001775432137 -0.004474505653 -0.0001535744455
19.03 -0.001774475464 -0.004474882964 -0.0001535847326
19.04 -0.001773518716 -0.004475260081 -0.0001535950114
19.05 -0.001772561893 -0.004475637004 -0.0001536052818
19.06 -0.001771604994 -0.004476013733 -0.0001536155437
19.07 -0.00177064802 -0.004476390268 -0.0001536257973
19.08 -0.001769690971 -0.004476766608 -0.0001536360425
19.09 -0.001768733846 -0.004477142754 -0.0001536462794
19.1 -0.001767776647 -0.004477518706 -0.0001536565078
19.11 -0.001766819372 -0.004477894464 -0.0001536667278
19.12 -0.001765862022 -0.004478270027 -0.0001536769395
19.13 -0.001764904596 -0.004478645396 -0.0001536871427
19.14 -0.001763947096 -0.004479020571 -0.0001536973376
19.15 -0.001762989521 -0.004479395551 -0.0001537075241
19.16 -0.001762031871 -0.004479770337 -0.0001537177022
19.17 -0.001761074146 -0.004480144929 -0.0001537278718
19.18 -0.001760116345 -0.004480519326 -0.0001537380331
19.19 -0.00175915847 -0.004480893529 -0.000153748186
19.2 -0.00175820052 -0.004481267538 -0.0001537583305
19.21 -0.001757242496 -0.004481641352 -0.0001537684667
19.22 -0.001756284396 -0.004482014972 -0.0001537785944
19.23 -0.001755326222 -0.004482388398 -0.0001537887137
19.24 -0.001754367973 -0.004482761629 -0.0001537988246
19.25 -0.001753409649 -0.004483134665 -0.0001538089272
19.26 -0.00175245125 -0.004483507507 -0.0001538190213
19.27 -0.001751492777 -0.004483880155 -0.000153829107
19.28 -0.001750534229 -0.004484252608 -0.0001538391844
19.29 -0.001749575607 -0.004484624867 -0.0001538492533
19.3 -0.00174861691 -0.004484996931 -0.0001538593139
19.31 -0.001747658139 -0.004485368801 -0.000153869366
19.32 -0.001746699293 -0.004485740476 -0.0001538794098
19.33 -0.001745740372 -0.004486111957 -0.0001538894451
19.34 -0.001744781378 -0.004486483243 -0.0001538994721
19.35 -0.001743822309 -0.004486854335 -0.0001539094906
19.36 -0.001742863165 -0.004487225232 -0.0001539195007
19.37 -0.001741903947 -0.004487595934 -0.0001539295025
19.38 -0.001740944655 -0.004487966442 -0.0001539394958
19.39 -0.001739985289 -0.004488336756 -0.0001539494808
19.4 -0.001739025848 -0.004488706874 -0.0001539594573
19.41 -0.001738066334 -0.004489076798 -0.0001539694254
19.42 -0.001737106745 -0.004489446528 -0.0001539793852
19.43 -0.001736147082 -0.004489816063 -0.0001539893365
19.44 -0.001735187345 -0.004490185403 -0.0001539992794
19.45 -0.001734227533 -0.004490554548 -0.0001540092139
19.46 -0.001733267648 -0.004490923499 -0.0001540191401
19.47 -0.001732307689 -0.004491292255 -0.0001540290578
19.48 -0.001731347656 -0.004491660816 -0.0001540389671
19.49 -0.001730387549 -0.004492029183 -0.000154048868
19.5 -0.001729427368 -0.004492397355 -0.0001540587605
19.51 -0.001728467113 -0.004492765332 -0.0001540686445
19.52 -0.001727506785 -0.004493133114 -0.0001540785202
19.53 -0.001726546382 -0.004493500702 -0.0001540883875
19.54 -0.001725585906 -0.004493868095 -0.0001540982463
19.55 -0.001724625356 -0.004494235293 -0.0001541080968
19.56 -0.001723664733 -0.004494602296 -0.0001541179388
19.57 -0.001722704035 -0.004494969104 -0.0001541277725
19.58 -0.001721743265 -0.004495335718 -0.0001541375977
19.59 -0.00172078242 -0.004495702137 -0.0001541474145
19.6 -0.001719821502 -0.004496068361 -0.0001541572229
19.61 -0.00171886051 -0.00449643439 -0.0001541670229
19.62 -0.001717899445 -0.004496800224 -0.0001541768144
19.63 -0.001716938307 -0.004497165863 -0.0001541865976
19.64 -0.001715977095 -0.004497531307 -0.0001541963724
19.65 -0.00171501581 -0.004497896557 -0.0001542061387
19.66 -0.001714054451 -0.004498261611 -0.0001542158966
19.67 -0.001713093019 -0.004498626471 -0.0001542256461
19.68 -0.001712131513 -0.004498991136 -0.0001542353872
19.69 -0.001711169935 -0.004499355605 -0.0001542451199
19.7 -0.001710208283 -0.00449971988 -0.0001542548442
19.71 -0.001709246558 -0.00450008396 -0.00015426456
19.72 -0.00170828476 -0.004500447844 -0.0001542742674
19.73 -0.001707322888 -0.004500811534 -0.0001542839665
19.74 -0.001706360944 -0.004501175029 -0.000154293657
19.75 -0.001705398926 -0.004501538328 -0.0001543033392
19.76 -0.001704436836 -0.004501901433 -0.000154313013
19.77 -0.001703474672 -0.004502264343 -0.0001543226783
19.78 -0.001702512436 -0.004502627057 -0.0001543323353
19.79 -0.001701550126 -0.004502989577 -0.0001543419838
19.8 -0.001700587744 -0.004503351901 -0.0001543516239
19.81 -0.001699625289 -0.00450371403 -0.0001543612555
19.82 -0.001698662761 -0.004504075964 -0.0001543708788
19.83 -0.00169770016 -0.004504437703 -0.0001543804936
19.84 -0.001696737486 -0.004504799247 -0.0001543901
19.85 -0.00169577474 -0.004505160596 -0.000154399698
19.86 -0.001694811921 -0.004505521749 -0.0001544092875
19.87 -0.001693849029 -0.004505882708 -0.0001544188687
19.88 -0.001692886064 -0.004506243471 -0.0001544284414
19.89 -0.001691923027 -0.004506604039 -0.0001544380057
19.9 -0.001690959918 -0.004506964412 -0.0001544475616
19.91 -0.001689996735 -0.004507324589 -0.000154457109
19.92 -0.001689033481 -0.004507684571 -0.000154466648
19.93 -0.001688070154 -0.004508044359 -0.0001544761786
19.94 -0.001687106754 -0.00450840395 -0.0001544857008
19.95 -0.001686143282 -0.004508763347 -0.0001544952145
19.96 -0.001685179738 -0.004509122548 -0.0001545047199
19.97 -0.001684216121 -0.004509481554 -0.0001545142167
19.98 -0.001683252432 -0.004509840365 -0.0001545237052
19.99 -0.00168228867 -0.00451019898 -0.0001545331852
20 -0.001681324837 -0.0045105574 -0.0001545426568
20.01 -0.001680360931 -0.004510915625 -0.00015455212
20.02 -0.001679396953 -0.004511273654 -0.0001545615748
20.03 -0.001678432903 -0.004511631488 -0.0001545710211
20.04 -0.001677468781 -0.004511989127 -0.000154580459
20.05 -0.001676504586 -0.00451234657 -0.0001545898885
20.06 -0.00167554032 -0.004512703818 -0.0001545993095
20.07 -0.001674575981 -0.00451306087 -0.0001546087221
20.08 -0.001673611571 -0.004513417727 -0.0001546181263
20.09 -0.001672647089 -0.004513774388 -0.000154627522
20.1 -0.001671682534 -0.004514130854 -0.0001546369093
20.11 -0.001670717908 -0.004514487125 -0.0001546462882
20.12 -0.00166975321 -0.0045148432 -0.0001546556586
20.13 -0.00166878844 -0.00451519908 -0.0001546650206
20.14 -0.001667823599 -0.004515554764 -0.0001546743742
20.15 -0.001666858685 -0.004515910253 -0.0001546837193
20.16 -0.0016658937 -0.004516265546 -0.0001546930561
20.17 -0.001664928643 -0.004516620643 -0.0001547023843
20.18 -0.001663963515 -0.004516975545 -0.0001547117042
20.19 -0.001662998315 -0.004517330252 -0.0001547210156
20.2 -0.001662033043 -0.004517684763 -0.0001547303185
20.21 -0.0016610677 -0.004518039078 -0.000154739613
20.22 -0.001660102285 -0.004518393198 -0.0001547488991
20.23 -0.001659136799 -0.004518747122 -0.0001547581768
20.24 -0.001658171241 -0.004519100851 -0.000154767446
20.25 -0.001657205612 -0.004519454384 -0.0001547767068
20.26 -0.001656239912 -0.004519807721 -0.0001547859591
20.27 -0.00165527414 -0.004520160862 -0.000154795203
20.28 -0.001654308297 -0.004520513808 -0.0001548044385
20.29 -0.001653342382 -0.004520866559 -0.0001548136655
20.3 -0.001652376396 -0.004521219113 -0.0001548228841
20.31 -0.001651410339 -0.004521571472 -0.0001548320942
20.32 -0.001650444211 -0.004521923635 -0.0001548412959
20.33 -0.001649478012 -0.004522275603 -0.0001548504892
20.34 -0.001648511741 -0.004522627375 -0.000154859674
20.35 -0.001647545399 -0.004522978951 -0.0001548688503
20.36 -0.001646578987 -0.004523330331 -0.0001548780183
20.37 -0.001645612503 -0.004523681516 -0.0001548871778
20.38 -0.001644645948 -0.004524032504 -0.0001548963288
20.39 -0.001643679323 -0.004524383297 -0.0001549054714
20.4 -0.001642712626 -0.004524733894 -0.0001549146055
20.41 -0.001641745859 -0.004525084296 -0.0001549237313
20.42 -0.00164077902 -0.004525434501 -0.0001549328485
20.43 -0.001639812111 -0.004525784511 -0.0001549419573
20.44 -0.001638845131 -0.004526134325 -0.0001549510577
20.45 -0.00163787808 -0.004526483942 -0.0001549601496
20.46 -0.001636910959 -0.004526833365 -0.0001549692331
20.47 -0.001635943766 -0.004527182591 -0.0001549783081
20.48 -0.001634976504 -0.004527531621 -0.0001549873747
20.49 -0.00163400917 -0.004527880455 -0.0001549964329
20.5 -0.001633041766 -0.004528229094 -0.0001550054825
20.51 -0.001632074291 -0.004528577536 -0.0001550145238
20.52 -0.001631106746 -0.004528925783 -0.0001550235566
20.53 -0.00163013913 -0.004529273833 -0.0001550325809
20.54 -0.001629171444 -0.004529621688 -0.0001550415968
20.55 -0.001628203687 -0.004529969347 -0.0001550506042
20.56 -0.00162723586 -0.00453031681 -0.0001550596032
20.57 -0.001626267963 -0.004530664076 -0.0001550685938
20.58 -0.001625299995 -0.004531011147 -0.0001550775758
20.59 -0.001624331957 -0.004531358021 -0.0001550865495
20.6 -0.001623363848 -0.0045317047 -0.0001550955147
20.61 -0.00162239567 -0.004532051183 -0.0001551044714
20.62 -0.001621427421 -0.004532397469 -0.0001551134197
20.63 -0.001620459102 -0.00453274356 -0.0001551223595
20.64 -0.001619490713 -0.004533089454 -0.0001551312908
20.65 -0.001618522253 -0.004533435152 -0.0001551402137
20.66 -0.001617553724 -0.004533780654 -0.0001551491282
20.67 -0.001616585125 -0.00453412596 -0.0001551580342
20.68 -0.001615616455 -0.00453447107 -0.0001551669317
20.69 -0.001614647716 -0.004534815984 -0.0001551758208
20.7 -0.001613678906 -0.004535160701 -0.0001551847015
20.71 -0.001612710027 -0.004535505223 -0.0001551935736
20.72 -0.001611741078 -0.004535849548 -0.0001552024374
20.73 -0.001610772059 -0.004536193677 -0.0001552112926
20.74 -0.00160980297 -0.00453653761 -0.0001552201394
20.75 -0.001608833811 -0.004536881346 -0.0001552289778
20.76 -0.001607864583 -0.004537224887 -0.0001552378076
20.77 -0.001606895285 -0.004537568231 -0.0001552466291
20.78 -0.001605925917 -0.004537911379 -0.000155255442
20.79 -0.00160495648 -0.004538254331 -0.0001552642465
20.8 -0.001603986973 -0.004538597086 -0.0001552730426
20.81 -0.001603017396 -0.004538939645 -0.0001552818302
20.82 -0.00160204775 -0.004539282008 -0.0001552906093
20.83 -0.001601078034 -0.004539624174 -0.0001552993799
20.84 -0.001600108249 -0.004539966144 -0.0001553081421
20.85 -0.001599138394 -0.004540307918 -0.0001553168959
20.86 -0.00159816847 -0.004540649496 -0.0001553256412
20.87 -0.001597198477 -0.004540990877 -0.000155334378
20.88 -0.001596228414 -0.004541332062 -0.0001553431063
20.89 -0.001595258282 -0.00454167305 -0.0001553518262
20.9 -0.001594288081 -0.004542013842 -0.0001553605376
20.91 -0.00159331781 -0.004542354438 -0.0001553692406
20.92 -0.00159234747 -0.004542694837 -0.000155377935
20.93 -0.001591377061 -0.00454303504 -0.0001553866211
20.94 -0.001590406583 -0.004543375046 -0.0001553952986
20.95 -0.001589436035 -0.004543714856 -0.0001554039677
20.96 -0.001588465419 -0.004544054469 -0.0001554126283
20.97 -0.001587494733 -0.004544393886 -0.0001554212805
20.98 -0.001586523979 -0.004544733107 -0.0001554299242
20.99 -0.001585553155 -0.004545072131 -0.0001554385594
21 -0.001584582263 -0.004545410958 -0.0001554471861
21.01 -0.001583611301 -0.004545749589 -0.0001554558044
21.02 -0.001582640271 -0.004546088023 -0.0001554644142
21.03 -0.001581669172 -0.004546426261 -0.0001554730155
21.04 -0.001580698004 -0.004546764303 -0.0001554816084
21.05 -0.001579726767 -0.004547102147 -0.0001554901928
21.06 -0.001578755461 -0.004547439795 -0.0001554987687
21.07 -0.001577784087 -0.004547777247 -0.0001555073362
21.08 -0.001576812644 -0.004548114502 -0.0001555158952
21.09 -0.001575841132 -0.00454845156 -0.0001555244457
21.1 -0.001574869552 -0.004548788422 -0.0001555329877
21.11 -0.001573897903 -0.004549125087 -0.0001555415213
21.12 -0.001572926185 -0.004549461556 -0.0001555500464
21.13 -0.001571954399 -0.004549797827 -0.000155558563
21.14 -0.001570982545 -0.004550133903 -0.0001555670712
21.15 -0.001570010622 -0.004550469781 -0.0001555755708
21.16 -0.001569038631 -0.004550805463 -0.000155584062
21.17 -0.001568066571 -0.004551140948 -0.0001555925448
21.18 -0.001567094442 -0.004551476236 -0.000155601019
21.19 -0.001566122246 -0.004551811328 -0.0001556094848
21.2 -0.001565149981 -0.004552146223 -0.0001556179421
21.21 -0.001564177648 -0.004552480921 -0.0001556263909
21.22 -0.001563205247 -0.004552815422 -0.0001556348312
21.23 -0.001562232777 -0.004553149727 -0.0001556432631
21.24 -0.001561260239 -0.004553483834 -0.0001556516865
21.25 -0.001560287634 -0.004553817745 -0.0001556601014
21.26 -0.00155931496 -0.00455415146 -0.0001556685078
21.27 -0.001558342218 -0.004554484977 -0.0001556769057
21.28 -0.001557369408 -0.004554818298 -0.0001556852952
21.29 -0.001556396529 -0.004555151421 -0.0001556936762
21.3 -0.001555423583 -0.004555484348 -0.0001557020487
21.31 -0.001554450569 -0.004555817078 -0.0001557104127
21.32 -0.001553477487 -0.004556149611 -0.0001557187683
21.33 -0.001552504338 -0.004556481947 -0.0001557271153
21.34 -0.00155153112 -0.004556814086 -0.0001557354539
21.35 -0.001550557835 -0.004557146029 -0.000155743784
21.36 -0.001549584481 -0.004557477774 -0.0001557521056
21.37 -0.001548611061 -0.004557809323 -0.0001557604188
21.38 -0.001547637572 -0.004558140674 -0.0001557687234
21.39 -0.001546664016 -0.004558471829 -0.0001557770196
21.4 -0.001545690392 -0.004558802787 -0.0001557853073
21.41 -0.0015447167 -0.004559133547 -0.0001557935865
21.42 -0.001543742941 -0.004559464111 -0.0001558018572
21.43 -0.001542769114 -0.004559794477 -0.0001558101194
21.44 -0.00154179522 -0.004560124647 -0.0001558183731
21.45 -0.001540821258 -0.00456045462 -0.0001558266184
21.46 -0.001539847229 -0.004560784395 -0.0001558348552
21.47 -0.001538873132 -0.004561113974 -0.0001558430834
21.48 -0.001537898968 -0.004561443355 -0.0001558513032
21.49 -0.001536924737 -0.004561772539 -0.0001558595145
21.5 -0.001535950439 -0.004562101527 -0.0001558677174
21.51 -0.001534976073 -0.004562430317 -0.0001558759117
21.52 -0.00153400164 -0.00456275891 -0.0001558840975
21.53 -0.001533027139 -0.004563087306 -0.0001558922749
21.54 -0.001532052572 -0.004563415505 -0.0001559004437
21.55 -0.001531077937 -0.004563743506 -0.0001559086041
21.56 -0.001530103235 -0.004564071311 -0.000155916756
21.57 -0.001529128466 -0.004564398918 -0.0001559248994
21.58 -0.00152815363 -0.004564726328 -0.0001559330343
21.59 -0.001527178727 -0.004565053541 -0.0001559411607
21.6 -0.001526203757 -0.004565380557 -0.0001559492786
21.61 -0.00152522872 -0.004565707375 -0.000155957388
21.62 -0.001524253617 -0.004566033997 -0.0001559654889
21.63 -0.001523278446 -0.004566360421 -0.0001559735814
21.64 -0.001522303208 -0.004566686647 -0.0001559816653
21.65 -0.001521327904 -0.004567012677 -0.0001559897408
21.66 -0.001520352533 -0.004567338509 -0.0001559978077
21.67 -0.001519377095 -0.004567664144 -0.0001560058662
21.68 -0.00151840159 -0.004567989582 -0.0001560139162
21.69 -0.001517426019 -0.004568314822 -0.0001560219576
21.7 -0.001516450381 -0.004568639865 -0.0001560299906
21.71 -0.001515474676 -0.004568964711 -0.0001560380151
21.72 -0.001514498905 -0.004569289359 -0.000156046031
21.73 -0.001513523067 -0.00456961381 -0.0001560540385
21.74 -0.001512547163 -0.004569938064 -0.0001560620375
21.75 -0.001511571192 -0.00457026212 -0.000156070028
21.76 -0.001510595155 -0.004570585979 -0.00015607801
21.77 -0.001509619051 -0.004570909641 -0.0001560859835
21.78 -0.001508642881 -0.004571233105 -0.0001560939485
21.79 -0.001507666645 -0.004571556371 -0.000156101905
21.8 -0.001506690342 -0.004571879441 -0.000156109853
21.81 -0.001505713973 -0.004572202312 -0.0001561177924
21.82 -0.001504737538 -0.004572524987 -0.0001561257234
21.83 -0.001503761036 -0.004572847463 -0.0001561336459
21.84 -0.001502784469 -0.004573169743 -0.0001561415599
21.85 -0.001501807835 -0.004573491825 -0.0001561494654
21.86 -0.001500831135 -0.004573813709 -0.0001561573624
21.87 -0.001499854369 -0.004574135396 -0.0001561652509
21.88 -0.001498877536 -0.004574456885 -0.0001561731309
21.89 -0.001497900638 -0.004574778177 -0.0001561810023
21.9 -0.001496923674 -0.004575099271 -0.0001561888653
21.91 -0.001495946644 -0.004575420168 -0.0001561967198
21.92 -0.001494969548 -0.004575740867 -0.0001562045657
21.93 -0.001493992386 -0.004576061368 -0.0001562124032
21.94 -0.001493015158 -0.004576381672 -0.0001562202322
21.95 -0.001492037864 -0.004576701779 -0.0001562280526
21.96 -0.001491060505 -0.004577021687 -0.0001562358646
21.97 -0.00149008308 -0.004577341398 -0.000156243668
21.98 -0.001489105589 -0.004577660912 -0.0001562514629
21.99 -0.001488128032 -0.004577980227 -0.0001562592494
22 -0.00148715041 -0.004578299345 -0.0001562670273
22.01 -0.001486172722 -0.004578618266 -0.0001562747967
22.02 -0.001485194968 -0.004578936989 -0.0001562825576
22.03 -0.001484217149 -0.004579255514 -0.00015629031
22.04 -0.001483239264 -0.004579573841 -0.0001562980539
22.05 -0.001482261314 -0.00457989197 -0.0001563057892
22.06 -0.001481283298 -0.004580209902 -0.0001563135161
22.07 -0.001480305217 -0.004580527636 -0.0001563212345
22.08 -0.001479327071 -0.004580845173 -0.0001563289443
22.09 -0.001478348859 -0.004581162511 -0.0001563366456
22.1 -0.001477370582 -0.004581479652 -0.0001563443385
22.11 -0.001476392239 -0.004581796595 -0.0001563520228
22.12 -0.001475413832 -0.00458211334 -0.0001563596986
22.13 -0.001474435359 -0.004582429888 -0.0001563673659
22.14 -0.00147345682 -0.004582746237 -0.0001563750246
22.15 -0.001472478217 -0.004583062389 -0.0001563826749
22.16 -0.001471499548 -0.004583378343 -0.0001563903167
