# t ax ay az
0 -3.702949385e-19 -0.006047375271 -0.0001399855387
0.01 1.629749275e-06 -0.00604734029 -0.0001400250197
0.02 3.259461788e-06 -0.006047304888 -0.0001400644877
0.03 4.889137446e-06 -0.006047269065 -0.0001401039425
0.04 6.518776155e-06 -0.006047232821 -0.0001401433841
0.05 8.148377822e-06 -0.006047196156 -0.0001401828126
0.06 9.777942354e-06 -0.006047159071 -0.000140222228
0.07 1.140746966e-05 -0.006047121565 -0.0001402616302
0.08 1.303695964e-05 -0.006047083639 -0.0001403010193
0.09 1.466641221e-05 -0.006047045291 -0.0001403403952
0.1 1.629582727e-05 -0.006047006523 -0.000140379758
0.11 1.792520473e-05 -0.006046967335 -0.0001404191076
0.12 1.955454449e-05 -0.006046927726 -0.0001404584441
0.13 2.118384647e-05 -0.006046887696 -0.0001404977674
0.14 2.281311057e-05 -0.006046847246 -0.0001405370775
0.15 2.444233669e-05 -0.006046806375 -0.0001405763745
0.16 2.607152475e-05 -0.006046765084 -0.0001406156583
0.17 2.770067465e-05 -0.006046723372 -0.0001406549289
0.18 2.93297863e-05 -0.00604668124 -0.0001406941864
0.19 3.09588596e-05 -0.006046638688 -0.0001407334307
0.2 3.258789446e-05 -0.006046595715 -0.0001407726618
0.21 3.42168908e-05 -0.006046552322 -0.0001408118798
0.22 3.584584851e-05 -0.006046508508 -0.0001408510846
0.23 3.74747675e-05 -0.006046464275 -0.0001408902762
0.24 3.910364768e-05 -0.006046419621 -0.0001409294546
0.25 4.073248896e-05 -0.006046374546 -0.0001409686198
0.26 4.236129124e-05 -0.006046329052 -0.0001410077718
0.27 4.399005444e-05 -0.006046283137 -0.0001410469107
0.28 4.561877845e-05 -0.006046236803 -0.0001410860363
0.29 4.72474632e-05 -0.006046190048 -0.0001411251488
0.3 4.887610857e-05 -0.006046142873 -0.000141164248
0.31 5.050471448e-05 -0.006046095278 -0.0001412033341
0.32 5.213328084e-05 -0.006046047263 -0.0001412424069
0.33 5.376180756e-05 -0.006045998828 -0.0001412814666
0.34 5.539029454e-05 -0.006045949973 -0.000141320513
0.35 5.701874169e-05 -0.006045900698 -0.0001413595463
0.36 5.864714891e-05 -0.006045851003 -0.0001413985663
0.37 6.027551612e-05 -0.006045800888 -0.0001414375731
0.38 6.190384322e-05 -0.006045750353 -0.0001414765667
0.39 6.353213012e-05 -0.006045699399 -0.0001415155471
0.4 6.516037673e-05 -0.006045648024 -0.0001415545142
0.41 6.678858295e-05 -0.00604559623 -0.0001415934681
0.42 6.841674869e-05 -0.006045544016 -0.0001416324088
0.43 7.004487386e-05 -0.006045491382 -0.0001416713363
0.44 7.167295836e-05 -0.006045438329 -0.0001417102506
0.45 7.330100211e-05 -0.006045384856 -0.0001417491516
0.46 7.4929005e-05 -0.006045330963 -0.0001417880394
0.47 7.655696696e-05 -0.00604527665 -0.0001418269139
0.48 7.818488788e-05 -0.006045221918 -0.0001418657752
0.49 7.981276768e-05 -0.006045166767 -0.0001419046233
0.5 8.144060625e-05 -0.006045111195 -0.0001419434581
0.51 8.306840352e-05 -0.006045055205 -0.0001419822797
0.52 8.469615938e-05 -0.006044998794 -0.0001420210881
0.53 8.632387374e-05 -0.006044941965 -0.0001420598831
0.54 8.795154652e-05 -0.006044884716 -0.000142098665
0.55 8.957917761e-05 -0.006044827047 -0.0001421374336
0.56 9.120676693e-05 -0.006044768959 -0.0001421761889
0.57 9.283431438e-05 -0.006044710452 -0.0001422149309
0.58 9.446181988e-05 -0.006044651525 -0.0001422536597
0.59 9.608928332e-05 -0.006044592179 -0.0001422923753
0.6 9.771670462e-05 -0.006044532414 -0.0001423310776
0.61 9.934408369e-05 -0.006044472229 -0.0001423697666
0.62 0.0001009714204 -0.006044411626 -0.0001424084423
0.63 0.0001025987147 -0.006044350603 -0.0001424471048
0.64 0.0001042259666 -0.006044289161 -0.000142485754
0.65 0.0001058531758 -0.006044227299 -0.0001425243899
0.66 0.0001074803423 -0.006044165019 -0.0001425630125
0.67 0.000109107466 -0.00604410232 -0.0001426016219
0.68 0.0001107345468 -0.006044039201 -0.0001426402179
0.69 0.0001123615847 -0.006043975663 -0.0001426788007
0.7 0.0001139885795 -0.006043911707 -0.0001427173702
0.71 0.0001156155311 -0.006043847331 -0.0001427559264
0.72 0.0001172424395 -0.006043782537 -0.0001427944693
0.73 0.0001188693046 -0.006043717323 -0.000142832999
0.74 0.0001204961262 -0.006043651691 -0.0001428715153
0.75 0.0001221229043 -0.00604358564 -0.0001429100183
0.76 0.0001237496388 -0.00604351917 -0.000142948508
0.77 0.0001253763295 -0.006043452281 -0.0001429869844
0.78 0.0001270029765 -0.006043384973 -0.0001430254476
0.79 0.0001286295796 -0.006043317247 -0.0001430638974
0.8 0.0001302561386 -0.006043249101 -0.0001431023339
0.81 0.0001318826536 -0.006043180537 -0.000143140757
0.82 0.0001335091245 -0.006043111555 -0.0001431791669
0.83 0.0001351355511 -0.006043042154 -0.0001432175635
0.84 0.0001367619333 -0.006042972334 -0.0001432559467
0.85 0.0001383882711 -0.006042902095 -0.0001432943166
0.86 0.0001400145643 -0.006042831438 -0.0001433326732
0.87 0.0001416408129 -0.006042760363 -0.0001433710165
0.88 0.0001432670168 -0.006042688868 -0.0001434093464
0.89 0.0001448931759 -0.006042616956 -0.000143447663
0.9 0.0001465192901 -0.006042544625 -0.0001434859663
0.91 0.0001481453592 -0.006042471875 -0.0001435242562
0.92 0.0001497713833 -0.006042398707 -0.0001435625328
0.93 0.0001513973622 -0.006042325121 -0.0001436007961
0.94 0.0001530232959 -0.006042251116 -0.000143639046
0.95 0.0001546491841 -0.006042176693 -0.0001436772826
0.96 0.000156275027 -0.006042101852 -0.0001437155058
0.97 0.0001579008242 -0.006042026593 -0.0001437537157
0.98 0.0001595265759 -0.006041950915 -0.0001437919122
0.99 0.0001611522818 -0.006041874819 -0.0001438300954
1 0.0001627779419 -0.006041798305 -0.0001438682652
1.01 0.000164403556 -0.006041721372 -0.0001439064217
1.02 0.0001660291242 -0.006041644022 -0.0001439445648
1.03 0.0001676546463 -0.006041566253 -0.0001439826945
1.04 0.0001692801222 -0.006041488066 -0.0001440208109
1.05 0.0001709055518 -0.006041409462 -0.0001440589139
1.06 0.000172530935 -0.006041330439 -0.0001440970036
1.07 0.0001741562718 -0.006041250998 -0.0001441350799
1.08 0.000175781562 -0.00604117114 -0.0001441731428
1.09 0.0001774068056 -0.006041090863 -0.0001442111923
1.1 0.0001790320024 -0.006041010168 -0.0001442492285
1.11 0.0001806571524 -0.006040929056 -0.0001442872513
1.12 0.0001822822555 -0.006040847526 -0.0001443252607
1.13 0.0001839073116 -0.006040765577 -0.0001443632567
1.14 0.0001855323205 -0.006040683212 -0.0001444012393
1.15 0.0001871572823 -0.006040600428 -0.0001444392086
1.16 0.0001887821968 -0.006040517226 -0.0001444771644
1.17 0.0001904070639 -0.006040433607 -0.0001445151069
1.18 0.0001920318835 -0.00604034957 -0.0001445530359
1.19 0.0001936566556 -0.006040265116 -0.0001445909516
1.2 0.0001952813801 -0.006040180244 -0.0001446288539
1.21 0.0001969060568 -0.006040094954 -0.0001446667427
1.22 0.0001985306856 -0.006040009247 -0.0001447046182
1.23 0.0002001552665 -0.006039923122 -0.0001447424803
1.24 0.0002017797995 -0.006039836579 -0.0001447803289
1.25 0.0002034042843 -0.006039749619 -0.0001448181642
1.26 0.0002050287209 -0.006039662242 -0.000144855986
1.27 0.0002066531092 -0.006039574447 -0.0001448937944
1.28 0.0002082774491 -0.006039486235 -0.0001449315894
1.29 0.0002099017406 -0.006039397605 -0.000144969371
1.3 0.0002115259835 -0.006039308558 -0.0001450071392
1.31 0.0002131501778 -0.006039219094 -0.0001450448939
1.32 0.0002147743233 -0.006039129212 -0.0001450826353
1.33 0.0002163984199 -0.006039038913 -0.0001451203632
1.34 0.0002180224677 -0.006038948197 -0.0001451580776
1.35 0.0002196464664 -0.006038857064 -0.0001451957787
1.36 0.000221270416 -0.006038765513 -0.0001452334663
1.37 0.0002228943164 -0.006038673546 -0.0001452711404
1.38 0.0002245181675 -0.006038581161 -0.0001453088011
1.39 0.0002261419692 -0.006038488359 -0.0001453464484
1.4 0.0002277657215 -0.00603839514 -0.0001453840823
1.41 0.0002293894242 -0.006038301504 -0.0001454217027
1.42 0.0002310130772 -0.006038207451 -0.0001454593096
1.43 0.0002326366805 -0.00603811298 -0.0001454969031
1.44 0.000234260234 -0.006038018093 -0.0001455344832
1.45 0.0002358837375 -0.006037922789 -0.0001455720498
1.46 0.000237507191 -0.006037827068 -0.0001456096029
1.47 0.0002391305944 -0.006037730931 -0.0001456471426
1.48 0.0002407539476 -0.006037634376 -0.0001456846688
1.49 0.0002423772505 -0.006037537405 -0.0001457221816
1.5 0.000244000503 -0.006037440016 -0.0001457596809
1.51 0.000245623705 -0.006037342211 -0.0001457971668
1.52 0.0002472468565 -0.006037243989 -0.0001458346391
1.53 0.0002488699573 -0.006037145351 -0.000145872098
1.54 0.0002504930074 -0.006037046296 -0.0001459095435
1.55 0.0002521160066 -0.006036946824 -0.0001459469754
1.56 0.0002537389549 -0.006036846935 -0.0001459843939
1.57 0.0002553618522 -0.00603674663 -0.0001460217989
1.58 0.0002569846984 -0.006036645909 -0.0001460591904
1.59 0.0002586074933 -0.00603654477 -0.0001460965684
1.6 0.000260230237 -0.006036443216 -0.000146133933
1.61 0.0002618529293 -0.006036341245 -0.000146171284
1.62 0.0002634755702 -0.006036238857 -0.0001462086216
1.63 0.0002650981594 -0.006036136053 -0.0001462459457
1.64 0.000266720697 -0.006036032832 -0.0001462832563
1.65 0.0002683431829 -0.006035929195 -0.0001463205534
1.66 0.0002699656169 -0.006035825142 -0.0001463578369
1.67 0.000271587999 -0.006035720673 -0.000146395107
1.68 0.0002732103291 -0.006035615787 -0.0001464323636
1.69 0.0002748326071 -0.006035510485 -0.0001464696067
1.7 0.0002764548329 -0.006035404766 -0.0001465068363
1.71 0.0002780770064 -0.006035298632 -0.0001465440524
1.72 0.0002796991275 -0.006035192081 -0.0001465812549
1.73 0.0002813211962 -0.006035085114 -0.000146618444
1.74 0.0002829432123 -0.006034977731 -0.0001466556195
1.75 0.0002845651757 -0.006034869932 -0.0001466927815
1.76 0.0002861870864 -0.006034761717 -0.00014672993
1.77 0.0002878089443 -0.006034653085 -0.000146767065
1.78 0.0002894307492 -0.006034544038 -0.0001468041864
1.79 0.0002910525012 -0.006034434575 -0.0001468412943
1.8 0.0002926742 -0.006034324696 -0.0001468783887
1.81 0.0002942958457 -0.006034214401 -0.0001469154696
1.82 0.000295917438 -0.00603410369 -0.0001469525369
1.83 0.000297538977 -0.006033992563 -0.0001469895907
1.84 0.0002991604626 -0.00603388102 -0.000147026631
1.85 0.0003007818945 -0.006033769062 -0.0001470636577
1.86 0.0003024032729 -0.006033656687 -0.0001471006708
1.87 0.0003040245975 -0.006033543897 -0.0001471376705
1.88 0.0003056458682 -0.006033430691 -0.0001471746566
1.89 0.0003072670851 -0.00603331707 -0.0001472116291
1.9 0.0003088882479 -0.006033203033 -0.0001472485881
1.91 0.0003105093567 -0.00603308858 -0.0001472855336
1.92 0.0003121304113 -0.006032973712 -0.0001473224654
1.93 0.0003137514116 -0.006032858428 -0.0001473593838
1.94 0.0003153723575 -0.006032742728 -0.0001473962885
1.95 0.000316993249 -0.006032626613 -0.0001474331798
1.96 0.0003186140859 -0.006032510082 -0.0001474700574
1.97 0.0003202348682 -0.006032393136 -0.0001475069215
1.98 0.0003218555958 -0.006032275775 -0.000147543772
1.99 0.0003234762685 -0.006032157998 -0.000147580609
2 0.0003250968864 -0.006032039805 -0.0001476174324
2.01 0.0003267174492 -0.006031921198 -0.0001476542422
2.02 0.000328337957 -0.006031802175 -0.0001476910384
2.03 0.0003299584096 -0.006031682736 -0.0001477278211
2.04 0.0003315788069 -0.006031562883 -0.0001477645901
2.05 0.0003331991489 -0.006031442614 -0.0001478013456
2.06 0.0003348194354 -0.00603132193 -0.0001478380876
2.07 0.0003364396664 -0.006031200831 -0.0001478748159
2.08 0.0003380598417 -0.006031079316 -0.0001479115306
2.09 0.0003396799614 -0.006030957387 -0.0001479482318
2.1 0.0003413000252 -0.006030835042 -0.0001479849193
2.11 0.0003429200332 -0.006030712283 -0.0001480215933
2.12 0.0003445399851 -0.006030589108 -0.0001480582537
2.13 0.000346159881 -0.006030465518 -0.0001480949004
2.14 0.0003477797207 -0.006030341513 -0.0001481315336
2.15 0.0003493995042 -0.006030217094 -0.0001481681532
2.16 0.0003510192313 -0.006030092259 -0.0001482047592
2.17 0.000352638902 -0.006029967009 -0.0001482413515
2.18 0.0003542585161 -0.006029841345 -0.0001482779303
2.19 0.0003558780736 -0.006029715266 -0.0001483144954
2.2 0.0003574975745 -0.006029588772 -0.0001483510469
2.21 0.0003591170185 -0.006029461863 -0.0001483875849
2.22 0.0003607364057 -0.006029334539 -0.0001484241092
2.23 0.0003623557359 -0.006029206801 -0.0001484606198
2.24 0.000363975009 -0.006029078648 -0.0001484971169
2.25 0.0003655942249 -0.00602895008 -0.0001485336003
2.26 0.0003672133837 -0.006028821098 -0.0001485700701
2.27 0.0003688324851 -0.006028691701 -0.0001486065263
2.28 0.000370451529 -0.006028561889 -0.0001486429689
2.29 0.0003720705155 -0.006028431663 -0.0001486793978
2.3 0.0003736894443 -0.006028301022 -0.0001487158131
2.31 0.0003753083155 -0.006028169967 -0.0001487522147
2.32 0.0003769271289 -0.006028038497 -0.0001487886027
2.33 0.0003785458844 -0.006027906613 -0.0001488249771
2.34 0.0003801645819 -0.006027774315 -0.0001488613378
2.35 0.0003817832215 -0.006027641602 -0.0001488976849
2.36 0.0003834018028 -0.006027508475 -0.0001489340184
2.37 0.000385020326 -0.006027374933 -0.0001489703382
2.38 0.0003866387908 -0.006027240977 -0.0001490066443
2.39 0.0003882571972 -0.006027106607 -0.0001490429368
2.4 0.0003898755451 -0.006026971823 -0.0001490792156
2.41 0.0003914938344 -0.006026836624 -0.0001491154808
2.42 0.0003931120651 -0.006026701011 -0.0001491517323
2.43 0.000394730237 -0.006026564984 -0.0001491879702
2.44 0.00039634835 -0.006026428543 -0.0001492241944
2.45 0.0003979664041 -0.006026291688 -0.0001492604049
2.46 0.0003995843992 -0.006026154419 -0.0001492966018
2.47 0.0004012023351 -0.006026016735 -0.000149332785
2.48 0.0004028202118 -0.006025878638 -0.0001493689545
2.49 0.0004044380293 -0.006025740127 -0.0001494051104
2.5 0.0004060557873 -0.006025601202 -0.0001494412526
2.51 0.0004076734859 -0.006025461862 -0.0001494773811
2.52 0.0004092911248 -0.006025322109 -0.0001495134959
2.53 0.0004109087042 -0.006025181942 -0.000149549597
2.54 0.0004125262237 -0.006025041362 -0.0001495856845
2.55 0.0004141436835 -0.006024900367 -0.0001496217583
2.56 0.0004157610833 -0.006024758959 -0.0001496578184
2.57 0.0004173784231 -0.006024617137 -0.0001496938647
2.58 0.0004189957028 -0.006024474901 -0.0001497298975
2.59 0.0004206129223 -0.006024332251 -0.0001497659165
2.6 0.0004222300815 -0.006024189188 -0.0001498019218
2.61 0.0004238471804 -0.006024045711 -0.0001498379134
2.62 0.0004254642188 -0.006023901821 -0.0001498738913
2.63 0.0004270811966 -0.006023757517 -0.0001499098555
2.64 0.0004286981138 -0.006023612799 -0.000149945806
2.65 0.0004303149703 -0.006023467668 -0.0001499817428
2.66 0.0004319317659 -0.006023322123 -0.0001500176659
2.67 0.0004335485007 -0.006023176165 -0.0001500535753
2.68 0.0004351651744 -0.006023029794 -0.000150089471
2.69 0.0004367817871 -0.006022883009 -0.000150125353
2.7 0.0004383983386 -0.006022735811 -0.0001501612212
2.71 0.0004400148288 -0.006022588199 -0.0001501970757
2.72 0.0004416312577 -0.006022440174 -0.0001502329165
2.73 0.0004432476251 -0.006022291736 -0.0001502687436
2.74 0.000444863931 -0.006022142884 -0.000150304557
2.75 0.0004464801753 -0.00602199362 -0.0001503403566
2.76 0.0004480963579 -0.006021843942 -0.0001503761425
2.77 0.0004497124787 -0.006021693851 -0.0001504119147
2.78 0.0004513285376 -0.006021543346 -0.0001504476731
2.79 0.0004529445345 -0.006021392429 -0.0001504834179
2.8 0.0004545604694 -0.006021241099 -0.0001505191488
2.81 0.0004561763421 -0.006021089355 -0.0001505548661
2.82 0.0004577921525 -0.006020937198 -0.0001505905695
2.83 0.0004594079007 -0.006020784629 -0.0001506262593
2.84 0.0004610235864 -0.006020631646 -0.0001506619353
2.85 0.0004626392096 -0.006020478251 -0.0001506975976
2.86 0.0004642547702 -0.006020324443 -0.0001507332461
2.87 0.0004658702682 -0.006020170221 -0.0001507688808
2.88 0.0004674857033 -0.006020015587 -0.0001508045018
2.89 0.0004691010756 -0.00601986054 -0.0001508401091
2.9 0.000470716385 -0.006019705081 -0.0001508757026
2.91 0.0004723316313 -0.006019549208 -0.0001509112823
2.92 0.0004739468145 -0.006019392923 -0.0001509468483
2.93 0.0004755619344 -0.006019236225 -0.0001509824005
2.94 0.0004771769911 -0.006019079115 -0.0001510179389
2.95 0.0004787919843 -0.006018921591 -0.0001510534636
2.96 0.0004804069141 -0.006018763656 -0.0001510889745
2.97 0.0004820217803 -0.006018605307 -0.0001511244716
2.98 0.0004836365829 -0.006018446546 -0.000151159955
2.99 0.0004852513217 -0.006018287373 -0.0001511954246
3 0.0004868659966 -0.006018127786 -0.0001512308804
3.01 0.0004884806077 -0.006017967788 -0.0001512663224
3.02 0.0004900951547 -0.006017807377 -0.0001513017507
3.03 0.0004917096376 -0.006017646554 -0.0001513371651
3.04 0.0004933240563 -0.006017485318 -0.0001513725658
3.05 0.0004949384108 -0.00601732367 -0.0001514079527
3.06 0.0004965527008 -0.006017161609 -0.0001514433258
3.07 0.0004981669265 -0.006016999137 -0.0001514786851
3.08 0.0004997810875 -0.006016836252 -0.0001515140306
3.09 0.000501395184 -0.006016672954 -0.0001515493624
3.1 0.0005030092157 -0.006016509245 -0.0001515846803
3.11 0.0005046231826 -0.006016345123 -0.0001516199844
3.12 0.0005062370846 -0.006016180589 -0.0001516552747
3.13 0.0005078509216 -0.006016015643 -0.0001516905513
3.14 0.0005094646936 -0.006015850285 -0.000151725814
3.15 0.0005110784003 -0.006015684515 -0.0001517610629
3.16 0.0005126920419 -0.006015518333 -0.000151796298
3.17 0.0005143056181 -0.006015351739 -0.0001518315193
3.18 0.0005159191288 -0.006015184733 -0.0001518667267
3.19 0.000517532574 -0.006015017315 -0.0001519019204
3.2 0.0005191459537 -0.006014849485 -0.0001519371002
3.21 0.0005207592676 -0.006014681243 -0.0001519722663
3.22 0.0005223725158 -0.00601451259 -0.0001520074185
3.23 0.0005239856981 -0.006014343524 -0.0001520425568
3.24 0.0005255988144 -0.006014174047 -0.0001520776814
3.25 0.0005272118647 -0.006014004158 -0.0001521127921
3.26 0.0005288248488 -0.006013833857 -0.000152147889
3.27 0.0005304377667 -0.006013663144 -0.0001521829721
3.28 0.0005320506183 -0.00601349202 -0.0001522180413
3.29 0.0005336634035 -0.006013320484 -0.0001522530967
3.3 0.0005352761223 -0.006013148537 -0.0001522881382
3.31 0.0005368887744 -0.006012976178 -0.000152323166
3.32 0.0005385013599 -0.006012803407 -0.0001523581798
3.33 0.0005401138786 -0.006012630225 -0.0001523931799
3.34 0.0005417263305 -0.006012456631 -0.000152428166
3.35 0.0005433387154 -0.006012282626 -0.0001524631384
3.36 0.0005449510334 -0.006012108209 -0.0001524980969
3.37 0.0005465632842 -0.006011933381 -0.0001525330415
3.38 0.0005481754679 -0.006011758142 -0.0001525679723
3.39 0.0005497875842 -0.006011582491 -0.0001526028892
3.4 0.0005513996332 -0.006011406429 -0.0001526377923
3.41 0.0005530116147 -0.006011229956 -0.0001526726815
3.42 0.0005546235287 -0.006011053071 -0.0001527075568
3.43 0.0005562353751 -0.006010875775 -0.0001527424183
3.44 0.0005578471537 -0.006010698068 -0.000152777266
3.45 0.0005594588646 -0.00601051995 -0.0001528120997
3.46 0.0005610705075 -0.00601034142 -0.0001528469196
3.47 0.0005626820824 -0.00601016248 -0.0001528817256
3.48 0.0005642935893 -0.006009983128 -0.0001529165177
3.49 0.000565905028 -0.006009803365 -0.000152951296
3.5 0.0005675163985 -0.006009623192 -0.0001529860604
3.51 0.0005691277006 -0.006009442607 -0.0001530208109
3.52 0.0005707389343 -0.006009261611 -0.0001530555475
3.53 0.0005723500995 -0.006009080204 -0.0001530902703
3.54 0.0005739611961 -0.006008898387 -0.0001531249791
3.55 0.000575572224 -0.006008716158 -0.0001531596741
3.56 0.0005771831832 -0.006008533519 -0.0001531943552
3.57 0.0005787940734 -0.006008350469 -0.0001532290224
3.58 0.0005804048948 -0.006008167008 -0.0001532636757
3.59 0.000582015647 -0.006007983136 -0.0001532983151
3.6 0.0005836263302 -0.006007798854 -0.0001533329406
3.61 0.0005852369441 -0.006007614161 -0.0001533675522
3.62 0.0005868474888 -0.006007429057 -0.0001534021499
3.63 0.000588457964 -0.006007243543 -0.0001534367337
3.64 0.0005900683698 -0.006007057618 -0.0001534713036
3.65 0.000591678706 -0.006006871282 -0.0001535058596
3.66 0.0005932889726 -0.006006684536 -0.0001535404016
3.67 0.0005948991694 -0.006006497379 -0.0001535749298
3.68 0.0005965092964 -0.006006309812 -0.0001536094441
3.69 0.0005981193534 -0.006006121834 -0.0001536439444
3.7 0.0005997293405 -0.006005933446 -0.0001536784308
3.71 0.0006013392575 -0.006005744647 -0.0001537129033
3.72 0.0006029491043 -0.006005555438 -0.0001537473619
3.73 0.0006045588808 -0.006005365819 -0.0001537818066
3.74 0.000606168587 -0.00600517579 -0.0001538162373
3.75 0.0006077782228 -0.00600498535 -0.0001538506541
3.76 0.000609387788 -0.0060047945 -0.000153885057
3.77 0.0006109972826 -0.006004603239 -0.000153919446
3.78 0.0006126067065 -0.006004411569 -0.000153953821
3.79 0.0006142160596 -0.006004219488 -0.0001539881821
3.8 0.0006158253418 -0.006004026997 -0.0001540225292
3.81 0.0006174345531 -0.006003834096 -0.0001540568625
3.82 0.0006190436933 -0.006003640785 -0.0001540911817
3.83 0.0006206527624 -0.006003447064 -0.0001541254871
3.84 0.0006222617603 -0.006003252933 -0.0001541597784
3.85 0.0006238706868 -0.006003058392 -0.0001541940559
3.86 0.0006254795419 -0.00600286344 -0.0001542283194
3.87 0.0006270883256 -0.006002668079 -0.0001542625689
3.88 0.0006286970376 -0.006002472308 -0.0001542968045
3.89 0.000630305678 -0.006002276128 -0.0001543310262
3.9 0.0006319142467 -0.006002079537 -0.0001543652338
3.91 0.0006335227435 -0.006001882537 -0.0001543994276
3.92 0.0006351311684 -0.006001685126 -0.0001544336073
3.93 0.0006367395212 -0.006001487306 -0.0001544677731
3.94 0.000638347802 -0.006001289077 -0.000154501925
3.95 0.0006399560106 -0.006001090437 -0.0001545360628
3.96 0.0006415641469 -0.006000891388 -0.0001545701868
3.97 0.0006431722109 -0.00600069193 -0.0001546042967
3.98 0.0006447802024 -0.006000492061 -0.0001546383927
3.99 0.0006463881213 -0.006000291783 -0.0001546724746
4 0.0006479959677 -0.006000091096 -0.0001547065427
4.01 0.0006496037413 -0.005999889999 -0.0001547405967
4.02 0.0006512114421 -0.005999688493 -0.0001547746368
4.03 0.0006528190701 -0.005999486577 -0.0001548086629
4.04 0.000654426625 -0.005999284252 -0.000154842675
4.05 0.0006560341069 -0.005999081517 -0.0001548766731
4.06 0.0006576415157 -0.005998878373 -0.0001549106572
4.07 0.0006592488512 -0.00599867482 -0.0001549446273
4.08 0.0006608561134 -0.005998470857 -0.0001549785835
4.09 0.0006624633023 -0.005998266485 -0.0001550125256
4.1 0.0006640704176 -0.005998061704 -0.0001550464538
4.11 0.0006656774593 -0.005997856513 -0.000155080368
4.12 0.0006672844273 -0.005997650914 -0.0001551142681
4.13 0.0006688913216 -0.005997444905 -0.0001551481543
4.14 0.0006704981421 -0.005997238487 -0.0001551820265
4.15 0.0006721048886 -0.00599703166 -0.0001552158846
4.16 0.0006737115612 -0.005996824424 -0.0001552497288
4.17 0.0006753181596 -0.005996616779 -0.0001552835589
4.18 0.0006769246838 -0.005996408725 -0.0001553173751
4.19 0.0006785311337 -0.005996200262 -0.0001553511772
4.2 0.0006801375093 -0.00599599139 -0.0001553849653
4.21 0.0006817438104 -0.005995782109 -0.0001554187394
4.22 0.000683350037 -0.00599557242 -0.0001554524995
4.23 0.000684956189 -0.005995362321 -0.0001554862455
4.24 0.0006865622662 -0.005995151814 -0.0001555199776
4.25 0.0006881682687 -0.005994940898 -0.0001555536956
4.26 0.0006897741963 -0.005994729573 -0.0001555873996
4.27 0.0006913800489 -0.005994517839 -0.0001556210895
4.28 0.0006929858264 -0.005994305697 -0.0001556547655
4.29 0.0006945915288 -0.005994093145 -0.0001556884274
4.3 0.0006961971559 -0.005993880186 -0.0001557220752
4.31 0.0006978027078 -0.005993666817 -0.0001557557091
4.32 0.0006994081842 -0.005993453041 -0.0001557893289
4.33 0.0007010135852 -0.005993238855 -0.0001558229346
4.34 0.0007026189105 -0.005993024261 -0.0001558565263
4.35 0.0007042241602 -0.005992809259 -0.000155890104
4.36 0.0007058293342 -0.005992593848 -0.0001559236677
4.37 0.0007074344323 -0.005992378029 -0.0001559572172
4.38 0.0007090394544 -0.005992161801 -0.0001559907528
4.39 0.0007106444006 -0.005991945165 -0.0001560242743
4.4 0.0007122492707 -0.00599172812 -0.0001560577817
4.41 0.0007138540645 -0.005991510668 -0.0001560912751
4.42 0.0007154587821 -0.005991292806 -0.0001561247544
4.43 0.0007170634234 -0.005991074537 -0.0001561582197
4.44 0.0007186679882 -0.00599085586 -0.0001561916709
4.45 0.0007202724765 -0.005990636774 -0.000156225108
4.46 0.0007218768881 -0.00599041728 -0.0001562585311
4.47 0.000723481223 -0.005990197378 -0.0001562919402
4.48 0.0007250854812 -0.005989977068 -0.0001563253351
4.49 0.0007266896625 -0.00598975635 -0.000156358716
4.5 0.0007282937668 -0.005989535224 -0.0001563920828
4.51 0.000729897794 -0.00598931369 -0.0001564254356
4.52 0.0007315017441 -0.005989091748 -0.0001564587742
4.53 0.000733105617 -0.005988869398 -0.0001564920988
4.54 0.0007347094126 -0.00598864664 -0.0001565254093
4.55 0.0007363131308 -0.005988423474 -0.0001565587058
4.56 0.0007379167715 -0.0059881999 -0.0001565919881
4.57 0.0007395203346 -0.005987975918 -0.0001566252564
4.58 0.0007411238201 -0.005987751529 -0.0001566585106
4.59 0.0007427272278 -0.005987526732 -0.0001566917506
4.6 0.0007443305577 -0.005987301527 -0.0001567249766
4.61 0.0007459338097 -0.005987075915 -0.0001567581886
4.62 0.0007475369837 -0.005986849894 -0.0001567913864
4.63 0.0007491400796 -0.005986623467 -0.0001568245701
4.64 0.0007507430973 -0.005986396631 -0.0001568577397
4.65 0.0007523460368 -0.005986169388 -0.0001568908953
4.66 0.0007539488979 -0.005985941738 -0.0001569240367
4.67 0.0007555516806 -0.005985713679 -0.000156957164
4.68 0.0007571543847 -0.005985485214 -0.0001569902772
4.69 0.0007587570103 -0.005985256341 -0.0001570233763
4.7 0.0007603595571 -0.00598502706 -0.0001570564613
4.71 0.0007619620252 -0.005984797372 -0.0001570895322
4.72 0.0007635644144 -0.005984567277 -0.000157122589
4.73 0.0007651667247 -0.005984336775 -0.0001571556317
4.74 0.0007667689559 -0.005984105865 -0.0001571886602
4.75 0.000768371108 -0.005983874548 -0.0001572216747
4.76 0.0007699731809 -0.005983642823 -0.000157254675
4.77 0.0007715751745 -0.005983410692 -0.0001572876612
4.78 0.0007731770887 -0.005983178153 -0.0001573206332
4.79 0.0007747789235 -0.005982945207 -0.0001573535912
4.8 0.0007763806787 -0.005982711854 -0.000157386535
4.81 0.0007779823543 -0.005982478094 -0.0001574194647
4.82 0.0007795839501 -0.005982243926 -0.0001574523802
4.83 0.0007811854661 -0.005982009352 -0.0001574852817
4.84 0.0007827869022 -0.005981774371 -0.0001575181689
4.85 0.0007843882584 -0.005981538983 -0.0001575510421
4.86 0.0007859895344 -0.005981303187 -0.0001575839011
4.87 0.0007875907303 -0.005981066985 -0.000157616746
4.88 0.000789191846 -0.005980830376 -0.0001576495767
4.89 0.0007907928813 -0.005980593361 -0.0001576823933
4.9 0.0007923938362 -0.005980355938 -0.0001577151957
4.91 0.0007939947107 -0.005980118108 -0.000157747984
4.92 0.0007955955045 -0.005979879872 -0.0001577807582
4.93 0.0007971962177 -0.005979641229 -0.0001578135182
4.94 0.0007987968501 -0.00597940218 -0.000157846264
4.95 0.0008003974016 -0.005979162724 -0.0001578789957
4.96 0.0008019978723 -0.005978922861 -0.0001579117132
4.97 0.0008035982619 -0.005978682591 -0.0001579444166
4.98 0.0008051985704 -0.005978441915 -0.0001579771058
4.99 0.0008067987977 -0.005978200832 -0.0001580097809
5 0.0008083989438 -0.005977959343 -0.0001580424417
5.01 0.0008099990085 -0.005977717448 -0.0001580750884
5.02 0.0008115989917 -0.005977475146 -0.000158107721
5.03 0.0008131988934 -0.005977232437 -0.0001581403394
5.04 0.0008147987135 -0.005976989322 -0.0001581729436
5.05 0.0008163984519 -0.005976745801 -0.0001582055336
5.06 0.0008179981085 -0.005976501874 -0.0001582381095
5.07 0.0008195976833 -0.00597625754 -0.0001582706711
5.08 0.000821197176 -0.0059760128 -0.0001583032186
5.09 0.0008227965868 -0.005975767653 -0.000158335752
5.1 0.0008243959154 -0.005975522101 -0.0001583682711
5.11 0.0008259951618 -0.005975276142 -0.0001584007761
5.12 0.0008275943258 -0.005975029777 -0.0001584332668
5.13 0.0008291934075 -0.005974783006 -0.0001584657434
5.14 0.0008307924067 -0.005974535829 -0.0001584982058
5.15 0.0008323913234 -0.005974288246 -0.000158530654
5.16 0.0008339901574 -0.005974040257 -0.000158563088
5.17 0.0008355889087 -0.005973791862 -0.0001585955078
5.18 0.0008371875771 -0.00597354306 -0.0001586279134
5.19 0.0008387861627 -0.005973293853 -0.0001586603048
5.2 0.0008403846653 -0.005973044241 -0.000158692682
5.21 0.0008419830848 -0.005972794222 -0.000158725045
5.22 0.0008435814211 -0.005972543797 -0.0001587573938
5.23 0.0008451796742 -0.005972292967 -0.0001587897284
5.24 0.000846777844 -0.005972041731 -0.0001588220488
5.25 0.0008483759303 -0.005971790089 -0.000158854355
5.26 0.0008499739332 -0.005971538041 -0.0001588866469
5.27 0.0008515718524 -0.005971285588 -0.0001589189247
5.28 0.000853169688 -0.005971032729 -0.0001589511882
5.29 0.0008547674399 -0.005970779464 -0.0001589834375
5.3 0.0008563651079 -0.005970525794 -0.0001590156726
5.31 0.0008579626919 -0.005970271718 -0.0001590478935
5.32 0.000859560192 -0.005970017237 -0.0001590801001
5.33 0.0008611576079 -0.00596976235 -0.0001591122926
5.34 0.0008627549397 -0.005969507058 -0.0001591444707
5.35 0.0008643521872 -0.00596925136 -0.0001591766347
5.36 0.0008659493503 -0.005968995257 -0.0001592087845
5.37 0.000867546429 -0.005968738748 -0.00015924092
5.38 0.0008691434232 -0.005968481835 -0.0001592730412
5.39 0.0008707403327 -0.005968224515 -0.0001593051483
5.4 0.0008723371576 -0.005967966791 -0.0001593372411
5.41 0.0008739338977 -0.005967708661 -0.0001593693196
5.42 0.0008755305529 -0.005967450126 -0.0001594013839
5.43 0.0008771271231 -0.005967191186 -0.000159433434
5.44 0.0008787236084 -0.005966931841 -0.0001594654699
5.45 0.0008803200084 -0.005966672091 -0.0001594974914
5.46 0.0008819163233 -0.005966411935 -0.0001595294988
5.47 0.0008835125529 -0.005966151375 -0.0001595614919
5.48 0.0008851086971 -0.005965890409 -0.0001595934707
5.49 0.0008867047559 -0.005965629039 -0.0001596254353
5.5 0.0008883007291 -0.005965367263 -0.0001596573856
5.51 0.0008898966166 -0.005965105083 -0.0001596893216
5.52 0.0008914924185 -0.005964842497 -0.0001597212435
5.53 0.0008930881345 -0.005964579507 -0.000159753151
5.54 0.0008946837647 -0.005964316112 -0.0001597850443
5.55 0.0008962793088 -0.005964052312 -0.0001598169233
5.56 0.0008978747669 -0.005963788107 -0.000159848788
5.57 0.0008994701389 -0.005963523498 -0.0001598806385
5.58 0.0009010654246 -0.005963258484 -0.0001599124747
5.59 0.000902660624 -0.005962993065 -0.0001599442967
5.6 0.0009042557371 -0.005962727241 -0.0001599761043
5.61 0.0009058507636 -0.005962461013 -0.0001600078977
5.62 0.0009074457035 -0.00596219438 -0.0001600396768
5.63 0.0009090405568 -0.005961927343 -0.0001600714417
5.64 0.0009106353234 -0.005961659901 -0.0001601031922
5.65 0.0009122300031 -0.005961392055 -0.0001601349285
5.66 0.0009138245959 -0.005961123804 -0.0001601666505
5.67 0.0009154191018 -0.005960855149 -0.0001601983581
5.68 0.0009170135205 -0.005960586089 -0.0001602300516
5.69 0.0009186078521 -0.005960316625 -0.0001602617307
5.7 0.0009202020964 -0.005960046756 -0.0001602933955
5.71 0.0009217962534 -0.005959776484 -0.000160325046
5.72 0.0009233903229 -0.005959505806 -0.0001603566823
5.73 0.000924984305 -0.005959234725 -0.0001603883042
5.74 0.0009265781995 -0.00595896324 -0.0001604199118
5.75 0.0009281720062 -0.00595869135 -0.0001604515052
5.76 0.0009297657253 -0.005958419056 -0.0001604830842
5.77 0.0009313593565 -0.005958146358 -0.0001605146489
5.78 0.0009329528997 -0.005957873256 -0.0001605461994
5.79 0.0009345463549 -0.005957599749 -0.0001605777355
5.8 0.0009361397221 -0.005957325839 -0.0001606092573
5.81 0.000937733001 -0.005957051525 -0.0001606407648
5.82 0.0009393261917 -0.005956776807 -0.000160672258
5.83 0.000940919294 -0.005956501684 -0.0001607037368
5.84 0.0009425123079 -0.005956226158 -0.0001607352014
5.85 0.0009441052332 -0.005955950228 -0.0001607666516
5.86 0.00094569807 -0.005955673894 -0.0001607980875
5.87 0.000947290818 -0.005955397157 -0.0001608295091
5.88 0.0009488834773 -0.005955120015 -0.0001608609164
5.89 0.0009504760477 -0.00595484247 -0.0001608923093
5.9 0.0009520685292 -0.005954564521 -0.0001609236879
5.91 0.0009536609216 -0.005954286168 -0.0001609550522
5.92 0.0009552532249 -0.005954007412 -0.0001609864022
5.93 0.000956845439 -0.005953728252 -0.0001610177378
5.94 0.0009584375638 -0.005953448688 -0.0001610490591
5.95 0.0009600295992 -0.005953168721 -0.000161080366
5.96 0.0009616215452 -0.00595288835 -0.0001611116586
5.97 0.0009632134017 -0.005952607576 -0.0001611429369
5.98 0.0009648051685 -0.005952326399 -0.0001611742008
5.99 0.0009663968456 -0.005952044817 -0.0001612054504
6 0.0009679884329 -0.005951762833 -0.0001612366856
6.01 0.0009695799303 -0.005951480445 -0.0001612679065
6.02 0.0009711713378 -0.005951197654 -0.0001612991131
6.03 0.0009727626552 -0.005950914459 -0.0001613303052
6.04 0.0009743538825 -0.005950630861 -0.0001613614831
6.05 0.0009759450196 -0.00595034686 -0.0001613926466
6.06 0.0009775360663 -0.005950062455 -0.0001614237957
6.07 0.0009791270227 -0.005949777648 -0.0001614549305
6.08 0.0009807178886 -0.005949492437 -0.0001614860509
6.09 0.0009823086639 -0.005949206823 -0.0001615171569
6.1 0.0009838993486 -0.005948920806 -0.0001615482486
6.11 0.0009854899426 -0.005948634386 -0.0001615793259
6.12 0.0009870804458 -0.005948347563 -0.0001616103889
6.13 0.0009886708581 -0.005948060337 -0.0001616414375
6.14 0.0009902611793 -0.005947772708 -0.0001616724717
6.15 0.0009918514096 -0.005947484676 -0.0001617034915
6.16 0.0009934415487 -0.005947196241 -0.000161734497
6.17 0.0009950315965 -0.005946907403 -0.0001617654881
6.18 0.000996621553 -0.005946618162 -0.0001617964648
6.19 0.0009982114182 -0.005946328518 -0.0001618274271
6.2 0.0009998011918 -0.005946038472 -0.0001618583751
6.21 0.001001390874 -0.005945748023 -0.0001618893087
6.22 0.001002980464 -0.005945457171 -0.0001619202279
6.23 0.001004569963 -0.005945165917 -0.0001619511327
6.24 0.00100615937 -0.005944874259 -0.0001619820231
6.25 0.001007748685 -0.0059445822 -0.0001620128991
6.26 0.001009337908 -0.005944289737 -0.0001620437608
6.27 0.001010927039 -0.005943996872 -0.000162074608
6.28 0.001012516077 -0.005943703605 -0.0001621054408
6.29 0.001014105024 -0.005943409934 -0.0001621362593
6.3 0.001015693878 -0.005943115862 -0.0001621670634
6.31 0.00101728264 -0.005942821387 -0.000162197853
6.32 0.001018871309 -0.00594252651 -0.0001622286283
6.33 0.001020459886 -0.00594223123 -0.0001622593891
6.34 0.00102204837 -0.005941935548 -0.0001622901356
6.35 0.001023636761 -0.005941639463 -0.0001623208676
6.36 0.001025225059 -0.005941342976 -0.0001623515852
6.37 0.001026813265 -0.005941046087 -0.0001623822884
6.38 0.001028401377 -0.005940748796 -0.0001624129772
6.39 0.001029989397 -0.005940451103 -0.0001624436516
6.4 0.001031577323 -0.005940153007 -0.0001624743116
6.41 0.001033165156 -0.005939854509 -0.0001625049572
6.42 0.001034752896 -0.00593955561 -0.0001625355883
6.43 0.001036340542 -0.005939256308 -0.000162566205
6.44 0.001037928095 -0.005938956604 -0.0001625968073
6.45 0.001039515554 -0.005938656498 -0.0001626273952
6.46 0.001041102919 -0.00593835599 -0.0001626579687
6.47 0.001042690191 -0.00593805508 -0.0001626885277
6.48 0.001044277369 -0.005937753768 -0.0001627190723
6.49 0.001045864453 -0.005937452055 -0.0001627496024
6.5 0.001047451442 -0.005937149939 -0.0001627801181
6.51 0.001049038338 -0.005936847422 -0.0001628106194
6.52 0.00105062514 -0.005936544503 -0.0001628411063
6.53 0.001052211847 -0.005936241182 -0.0001628715787
6.54 0.00105379846 -0.005935937459 -0.0001629020367
6.55 0.001055384979 -0.005935633335 -0.0001629324802
6.56 0.001056971403 -0.005935328809 -0.0001629629093
6.57 0.001058557732 -0.005935023882 -0.000162993324
6.58 0.001060143967 -0.005934718553 -0.0001630237242
6.59 0.001061730107 -0.005934412822 -0.0001630541099
6.6 0.001063316152 -0.00593410669 -0.0001630844812
6.61 0.001064902103 -0.005933800156 -0.0001631148381
6.62 0.001066487958 -0.005933493221 -0.0001631451804
6.63 0.001068073718 -0.005933185884 -0.0001631755084
6.64 0.001069659383 -0.005932878146 -0.0001632058219
6.65 0.001071244952 -0.005932570007 -0.0001632361209
6.66 0.001072830427 -0.005932261466 -0.0001632664055
6.67 0.001074415806 -0.005931952524 -0.0001632966756
6.68 0.001076001089 -0.00593164318 -0.0001633269312
6.69 0.001077586277 -0.005931333436 -0.0001633571724
6.7 0.001079171369 -0.00593102329 -0.0001633873991
6.71 0.001080756365 -0.005930712743 -0.0001634176113
6.72 0.001082341265 -0.005930401795 -0.0001634478091
6.73 0.00108392607 -0.005930090445 -0.0001634779924
6.74 0.001085510778 -0.005929778695 -0.0001635081612
6.75 0.001087095391 -0.005929466544 -0.0001635383155
6.76 0.001088679907 -0.005929153991 -0.0001635684554
6.77 0.001090264327 -0.005928841038 -0.0001635985808
6.78 0.00109184865 -0.005928527683 -0.0001636286917
6.79 0.001093432877 -0.005928213928 -0.0001636587881
6.8 0.001095017008 -0.005927899772 -0.00016368887
6.81 0.001096601042 -0.005927585214 -0.0001637189375
6.82 0.001098184979 -0.005927270257 -0.0001637489904
6.83 0.001099768819 -0.005926954898 -0.0001637790289
6.84 0.001101352563 -0.005926639138 -0.0001638090529
6.85 0.00110293621 -0.005926322978 -0.0001638390624
6.86 0.001104519759 -0.005926006417 -0.0001638690573
6.87 0.001106103212 -0.005925689455 -0.0001638990378
6.88 0.001107686567 -0.005925372093 -0.0001639290038
6.89 0.001109269825 -0.00592505433 -0.0001639589553
6.9 0.001110852986 -0.005924736167 -0.0001639888923
6.91 0.001112436049 -0.005924417602 -0.0001640188148
6.92 0.001114019015 -0.005924098638 -0.0001640487228
6.93 0.001115601883 -0.005923779273 -0.0001640786163
6.94 0.001117184653 -0.005923459507 -0.0001641084953
6.95 0.001118767326 -0.005923139341 -0.0001641383597
6.96 0.0011203499 -0.005922818775 -0.0001641682097
6.97 0.001121932377 -0.005922497808 -0.0001641980451
6.98 0.001123514756 -0.005922176441 -0.000164227866
6.99 0.001125097037 -0.005921854674 -0.0001642576724
7 0.001126679219 -0.005921532506 -0.0001642874643
7.01 0.001128261303 -0.005921209939 -0.0001643172417
7.02 0.001129843289 -0.005920886971 -0.0001643470045
7.03 0.001131425176 -0.005920563602 -0.0001643767528
7.04 0.001133006965 -0.005920239834 -0.0001644064866
7.05 0.001134588655 -0.005919915666 -0.0001644362059
7.06 0.001136170247 -0.005919591097 -0.0001644659106
7.07 0.001137751739 -0.005919266128 -0.0001644956009
7.08 0.001139333133 -0.00591894076 -0.0001645252765
7.09 0.001140914428 -0.005918614991 -0.0001645549377
7.1 0.001142495624 -0.005918288823 -0.0001645845843
7.11 0.001144076721 -0.005917962254 -0.0001646142163
7.12 0.001145657718 -0.005917635286 -0.0001646438339
7.13 0.001147238617 -0.005917307918 -0.0001646734369
7.14 0.001148819415 -0.00591698015 -0.0001647030253
7.15 0.001150400115 -0.005916651982 -0.0001647325992
7.16 0.001151980715 -0.005916323415 -0.0001647621586
7.17 0.001153561215 -0.005915994448 -0.0001647917034
7.18 0.001155141616 -0.005915665081 -0.0001648212336
7.19 0.001156721916 -0.005915335314 -0.0001648507494
7.2 0.001158302117 -0.005915005148 -0.0001648802505
7.21 0.001159882218 -0.005914674582 -0.0001649097371
7.22 0.001161462219 -0.005914343617 -0.0001649392092
7.23 0.00116304212 -0.005914012252 -0.0001649686667
7.24 0.001164621921 -0.005913680487 -0.0001649981096
7.25 0.001166201621 -0.005913348324 -0.000165027538
7.26 0.001167781221 -0.00591301576 -0.0001650569518
7.27 0.001169360721 -0.005912682798 -0.000165086351
7.28 0.00117094012 -0.005912349436 -0.0001651157357
7.29 0.001172519418 -0.005912015674 -0.0001651451058
7.3 0.001174098616 -0.005911681513 -0.0001651744614
7.31 0.001175677713 -0.005911346953 -0.0001652038023
7.32 0.001177256709 -0.005911011994 -0.0001652331287
7.33 0.001178835604 -0.005910676636 -0.0001652624405
7.34 0.001180414398 -0.005910340878 -0.0001652917378
7.35 0.001181993091 -0.005910004721 -0.0001653210205
7.36 0.001183571683 -0.005909668165 -0.0001653502886
7.37 0.001185150173 -0.00590933121 -0.0001653795421
7.38 0.001186728562 -0.005908993856 -0.000165408781
7.39 0.00118830685 -0.005908656103 -0.0001654380054
7.4 0.001189885036 -0.005908317951 -0.0001654672151
7.41 0.001191463121 -0.0059079794 -0.0001654964103
7.42 0.001193041104 -0.00590764045 -0.0001655255909
7.43 0.001194618985 -0.005907301101 -0.0001655547569
7.44 0.001196196764 -0.005906961354 -0.0001655839083
7.45 0.001197774441 -0.005906621207 -0.0001656130451
7.46 0.001199352016 -0.005906280662 -0.0001656421673
7.47 0.001200929489 -0.005905939718 -0.0001656712749
7.48 0.00120250686 -0.005905598375 -0.0001657003679
7.49 0.001204084129 -0.005905256634 -0.0001657294463
7.5 0.001205661295 -0.005904914493 -0.0001657585101
7.51 0.001207238359 -0.005904571955 -0.0001657875593
7.52 0.001208815321 -0.005904229017 -0.0001658165939
7.53 0.001210392179 -0.005903885681 -0.0001658456139
7.54 0.001211968935 -0.005903541947 -0.0001658746193
7.55 0.001213545589 -0.005903197814 -0.0001659036101
7.56 0.001215122139 -0.005902853282 -0.0001659325863
7.57 0.001216698586 -0.005902508352 -0.0001659615478
7.58 0.001218274931 -0.005902163024 -0.0001659904947
7.59 0.001219851172 -0.005901817297 -0.0001660194271
7.6 0.00122142731 -0.005901471172 -0.0001660483448
7.61 0.001223003345 -0.005901124649 -0.0001660772478
7.62 0.001224579277 -0.005900777727 -0.0001661061363
7.63 0.001226155105 -0.005900430407 -0.0001661350101
7.64 0.001227730829 -0.005900082689 -0.0001661638693
7.65 0.00122930645 -0.005899734573 -0.0001661927139
7.66 0.001230881968 -0.005899386058 -0.0001662215438
7.67 0.001232457381 -0.005899037146 -0.0001662503592
7.68 0.001234032691 -0.005898687835 -0.0001662791599
7.69 0.001235607897 -0.005898338126 -0.0001663079459
7.7 0.001237182998 -0.005897988019 -0.0001663367173
7.71 0.001238757996 -0.005897637515 -0.0001663654741
7.72 0.001240332889 -0.005897286612 -0.0001663942162
7.73 0.001241907678 -0.005896935311 -0.0001664229437
7.74 0.001243482363 -0.005896583613 -0.0001664516566
7.75 0.001245056944 -0.005896231516 -0.0001664803548
7.76 0.00124663142 -0.005895879022 -0.0001665090384
7.77 0.001248205791 -0.00589552613 -0.0001665377073
7.78 0.001249780057 -0.00589517284 -0.0001665663616
7.79 0.001251354219 -0.005894819152 -0.0001665950012
7.8 0.001252928276 -0.005894465067 -0.0001666236262
7.81 0.001254502228 -0.005894110584 -0.0001666522365
7.82 0.001256076076 -0.005893755704 -0.0001666808322
7.83 0.001257649818 -0.005893400425 -0.0001667094132
7.84 0.001259223454 -0.00589304475 -0.0001667379795
7.85 0.001260796986 -0.005892688676 -0.0001667665312
7.86 0.001262370412 -0.005892332206 -0.0001667950683
7.87 0.001263943733 -0.005891975337 -0.0001668235906
7.88 0.001265516948 -0.005891618072 -0.0001668520983
7.89 0.001267090058 -0.005891260408 -0.0001668805914
7.9 0.001268663062 -0.005890902348 -0.0001669090697
7.91 0.00127023596 -0.00589054389 -0.0001669375334
7.92 0.001271808753 -0.005890185035 -0.0001669659825
7.93 0.001273381439 -0.005889825782 -0.0001669944168
7.94 0.00127495402 -0.005889466133 -0.0001670228365
7.95 0.001276526494 -0.005889106086 -0.0001670512415
7.96 0.001278098863 -0.005888745642 -0.0001670796318
7.97 0.001279671125 -0.0058883848 -0.0001671080075
7.98 0.00128124328 -0.005888023562 -0.0001671363684
7.99 0.00128281533 -0.005887661926 -0.0001671647147
8 0.001284387273 -0.005887299894 -0.0001671930463
8.01 0.001285959109 -0.005886937464 -0.0001672213632
8.02 0.001287530839 -0.005886574638 -0.0001672496654
8.03 0.001289102461 -0.005886211414 -0.000167277953
8.04 0.001290673977 -0.005885847794 -0.0001673062258
8.05 0.001292245387 -0.005885483776 -0.000167334484
8.06 0.001293816689 -0.005885119362 -0.0001673627274
8.07 0.001295387884 -0.005884754551 -0.0001673909562
8.08 0.001296958972 -0.005884389343 -0.0001674191702
8.09 0.001298529952 -0.005884023739 -0.0001674473696
8.1 0.001300100826 -0.005883657737 -0.0001674755543
8.11 0.001301671592 -0.005883291339 -0.0001675037242
8.12 0.00130324225 -0.005882924545 -0.0001675318795
8.13 0.001304812801 -0.005882557353 -0.0001675600201
8.14 0.001306383245 -0.005882189765 -0.0001675881459
8.15 0.00130795358 -0.005881821781 -0.000167616257
8.16 0.001309523808 -0.0058814534 -0.0001676443535
8.17 0.001311093928 -0.005881084622 -0.0001676724352
8.18 0.00131266394 -0.005880715448 -0.0001677005022
8.19 0.001314233843 -0.005880345878 -0.0001677285545
8.2 0.001315803639 -0.005879975911 -0.0001677565921
8.21 0.001317373327 -0.005879605547 -0.0001677846149
8.22 0.001318942906 -0.005879234788 -0.000167812623
8.23 0.001320512377 -0.005878863632 -0.0001678406165
8.24 0.001322081739 -0.00587849208 -0.0001678685952
8.25 0.001323650993 -0.005878120131 -0.0001678965591
8.26 0.001325220138 -0.005877747786 -0.0001679245084
8.27 0.001326789174 -0.005877375046 -0.0001679524429
8.28 0.001328358102 -0.005877001909 -0.0001679803627
8.29 0.001329926921 -0.005876628375 -0.0001680082677
8.3 0.00133149563 -0.005876254446 -0.000168036158
8.31 0.001333064231 -0.005875880121 -0.0001680640336
8.32 0.001334632723 -0.0058755054 -0.0001680918945
8.33 0.001336201105 -0.005875130282 -0.0001681197406
8.34 0.001337769378 -0.005874754769 -0.0001681475719
8.35 0.001339337542 -0.00587437886 -0.0001681753886
8.36 0.001340905596 -0.005874002555 -0.0001682031905
8.37 0.001342473541 -0.005873625854 -0.0001682309776
8.38 0.001344041376 -0.005873248757 -0.00016825875
8.39 0.001345609102 -0.005872871265 -0.0001682865077
8.4 0.001347176717 -0.005872493377 -0.0001683142506
8.41 0.001348744223 -0.005872115093 -0.0001683419787
8.42 0.001350311619 -0.005871736413 -0.0001683696921
8.43 0.001351878905 -0.005871357337 -0.0001683973908
8.44 0.00135344608 -0.005870977866 -0.0001684250747
8.45 0.001355013146 -0.005870598 -0.0001684527438
8.46 0.001356580101 -0.005870217738 -0.0001684803982
8.47 0.001358146946 -0.00586983708 -0.0001685080378
8.48 0.001359713681 -0.005869456027 -0.0001685356627
8.49 0.001361280305 -0.005869074578 -0.0001685632728
8.5 0.001362846818 -0.005868692734 -0.0001685908681
8.51 0.001364413221 -0.005868310495 -0.0001686184487
8.52 0.001365979512 -0.00586792786 -0.0001686460145
8.53 0.001367545693 -0.00586754483 -0.0001686735655
8.54 0.001369111764 -0.005867161404 -0.0001687011018
8.55 0.001370677723 -0.005866777583 -0.0001687286233
8.56 0.001372243571 -0.005866393367 -0.00016875613
8.57 0.001373809308 -0.005866008756 -0.0001687836219
8.58 0.001375374933 -0.00586562375 -0.0001688110991
8.59 0.001376940447 -0.005865238348 -0.0001688385615
8.6 0.00137850585 -0.005864852552 -0.0001688660091
8.61 0.001380071142 -0.00586446636 -0.0001688934419
8.62 0.001381636321 -0.005864079773 -0.0001689208599
8.63 0.001383201389 -0.005863692791 -0.0001689482632
8.64 0.001384766346 -0.005863305415 -0.0001689756516
8.65 0.00138633119 -0.005862917643 -0.0001690030253
8.66 0.001387895923 -0.005862529476 -0.0001690303842
8.67 0.001389460543 -0.005862140915 -0.0001690577283
8.68 0.001391025052 -0.005861751958 -0.0001690850576
8.69 0.001392589448 -0.005861362607 -0.0001691123721
8.7 0.001394153732 -0.005860972861 -0.0001691396718
8.71 0.001395717904 -0.005860582721 -0.0001691669568
8.72 0.001397281964 -0.005860192185 -0.0001691942269
8.73 0.001398845911 -0.005859801255 -0.0001692214822
8.74 0.001400409745 -0.005859409931 -0.0001692487227
8.75 0.001401973467 -0.005859018211 -0.0001692759484
8.76 0.001403537076 -0.005858626097 -0.0001693031593
8.77 0.001405100572 -0.005858233589 -0.0001693303554
8.78 0.001406663955 -0.005857840686 -0.0001693575367
8.79 0.001408227225 -0.005857447388 -0.0001693847032
8.8 0.001409790383 -0.005857053696 -0.0001694118549
8.81 0.001411353427 -0.00585665961 -0.0001694389917
8.82 0.001412916358 -0.005856265129 -0.0001694661138
8.83 0.001414479175 -0.005855870254 -0.000169493221
8.84 0.001416041879 -0.005855474985 -0.0001695203134
8.85 0.00141760447 -0.005855079321 -0.000169547391
8.86 0.001419166947 -0.005854683263 -0.0001695744538
8.87 0.001420729311 -0.005854286811 -0.0001696015017
8.88 0.001422291561 -0.005853889964 -0.0001696285348
8.89 0.001423853697 -0.005853492724 -0.0001696555531
8.9 0.001425415719 -0.005853095089 -0.0001696825566
8.91 0.001426977628 -0.00585269706 -0.0001697095452
8.92 0.001428539422 -0.005852298638 -0.000169736519
8.93 0.001430101102 -0.005851899821 -0.000169763478
8.94 0.001431662668 -0.00585150061 -0.0001697904222
8.95 0.001433224119 -0.005851101005 -0.0001698173515
8.96 0.001434785457 -0.005850701006 -0.0001698442659
8.97 0.00143634668 -0.005850300614 -0.0001698711656
8.98 0.001437907788 -0.005849899827 -0.0001698980504
8.99 0.001439468782 -0.005849498647 -0.0001699249203
9 0.001441029661 -0.005849097073 -0.0001699517754
9.01 0.001442590425 -0.005848695105 -0.0001699786157
9.02 0.001444151074 -0.005848292743 -0.0001700054411
9.03 0.001445711609 -0.005847889988 -0.0001700322517
9.04 0.001447272028 -0.005847486839 -0.0001700590474
9.05 0.001448832333 -0.005847083296 -0.0001700858283
9.06 0.001450392522 -0.00584667936 -0.0001701125943
9.07 0.001451952596 -0.00584627503 -0.0001701393455
9.08 0.001453512555 -0.005845870307 -0.0001701660818
9.09 0.001455072398 -0.00584546519 -0.0001701928032
9.1 0.001456632125 -0.005845059679 -0.0001702195098
9.11 0.001458191738 -0.005844653776 -0.0001702462016
9.12 0.001459751234 -0.005844247479 -0.0001702728785
9.13 0.001461310615 -0.005843840788 -0.0001702995405
9.14 0.00146286988 -0.005843433704 -0.0001703261876
9.15 0.001464429029 -0.005843026227 -0.0001703528199
9.16 0.001465988062 -0.005842618356 -0.0001703794373
9.17 0.001467546979 -0.005842210093 -0.0001704060399
9.18 0.001469105779 -0.005841801436 -0.0001704326276
9.19 0.001470664464 -0.005841392386 -0.0001704592004
9.2 0.001472223032 -0.005840982943 -0.0001704857583
9.21 0.001473781484 -0.005840573106 -0.0001705123014
9.22 0.001475339819 -0.005840162877 -0.0001705388295
9.23 0.001476898038 -0.005839752254 -0.0001705653428
9.24 0.00147845614 -0.005839341239 -0.0001705918413
9.25 0.001480014126 -0.005838929831 -0.0001706183248
9.26 0.001481571994 -0.005838518029 -0.0001706447935
9.27 0.001483129746 -0.005838105835 -0.0001706712472
9.28 0.001484687381 -0.005837693248 -0.0001706976861
9.29 0.001486244899 -0.005837280268 -0.0001707241101
9.3 0.001487802299 -0.005836866895 -0.0001707505192
9.31 0.001489359583 -0.005836453129 -0.0001707769135
9.32 0.001490916749 -0.005836038971 -0.0001708032928
9.33 0.001492473798 -0.00583562442 -0.0001708296572
9.34 0.001494030729 -0.005835209476 -0.0001708560068
9.35 0.001495587543 -0.00583479414 -0.0001708823414
9.36 0.001497144239 -0.005834378411 -0.0001709086612
9.37 0.001498700817 -0.005833962289 -0.000170934966
9.38 0.001500257278 -0.005833545775 -0.000170961256
9.39 0.001501813621 -0.005833128869 -0.000170987531
9.4 0.001503369846 -0.005832711569 -0.0001710137911
9.41 0.001504925953 -0.005832293878 -0.0001710400364
9.42 0.001506481942 -0.005831875794 -0.0001710662667
9.43 0.001508037812 -0.005831457318 -0.0001710924821
9.44 0.001509593565 -0.005831038449 -0.0001711186826
9.45 0.001511149199 -0.005830619188 -0.0001711448682
9.46 0.001512704714 -0.005830199535 -0.0001711710389
9.47 0.001514260111 -0.005829779489 -0.0001711971947
9.48 0.00151581539 -0.005829359051 -0.0001712233355
9.49 0.00151737055 -0.005828938221 -0.0001712494615
9.5 0.001518925591 -0.005828516999 -0.0001712755725
9.51 0.001520480513 -0.005828095385 -0.0001713016686
9.52 0.001522035316 -0.005827673379 -0.0001713277498
9.53 0.001523590001 -0.00582725098 -0.000171353816
9.54 0.001525144566 -0.00582682819 -0.0001713798673
9.55 0.001526699012 -0.005826405007 -0.0001714059037
9.56 0.001528253339 -0.005825981433 -0.0001714319252
9.57 0.001529807547 -0.005825557467 -0.0001714579317
9.58 0.001531361635 -0.005825133109 -0.0001714839233
9.59 0.001532915604 -0.005824708359 -0.0001715099
9.6 0.001534469453 -0.005824283217 -0.0001715358618
9.61 0.001536023182 -0.005823857683 -0.0001715618086
9.62 0.001537576792 -0.005823431758 -0.0001715877404
9.63 0.001539130282 -0.005823005441 -0.0001716136573
9.64 0.001540683652 -0.005822578732 -0.0001716395593
9.65 0.001542236902 -0.005822151632 -0.0001716654464
9.66 0.001543790033 -0.00582172414 -0.0001716913185
9.67 0.001545343043 -0.005821296256 -0.0001717171756
9.68 0.001546895932 -0.005820867981 -0.0001717430179
9.69 0.001548448702 -0.005820439314 -0.0001717688451
9.7 0.001550001351 -0.005820010256 -0.0001717946574
9.71 0.00155155388 -0.005819580807 -0.0001718204548
9.72 0.001553106288 -0.005819150966 -0.0001718462372
9.73 0.001554658575 -0.005818720733 -0.0001718720047
9.74 0.001556210742 -0.005818290109 -0.0001718977572
9.75 0.001557762788 -0.005817859094 -0.0001719234947
9.76 0.001559314714 -0.005817427688 -0.0001719492173
9.77 0.001560866518 -0.00581699589 -0.0001719749249
9.78 0.001562418201 -0.005816563701 -0.0001720006176
9.79 0.001563969764 -0.005816131121 -0.0001720262953
9.8 0.001565521205 -0.00581569815 -0.000172051958
9.81 0.001567072524 -0.005815264788 -0.0001720776058
9.82 0.001568623723 -0.005814831034 -0.0001721032386
9.83 0.0015701748 -0.00581439689 -0.0001721288564
9.84 0.001571725755 -0.005813962354 -0.0001721544593
9.85 0.001573276589 -0.005813527428 -0.0001721800472
9.86 0.001574827302 -0.00581309211 -0.0001722056201
9.87 0.001576377892 -0.005812656402 -0.000172231178
9.88 0.001577928361 -0.005812220303 -0.000172256721
9.89 0.001579478708 -0.005811783813 -0.000172282249
9.9 0.001581028933 -0.005811346932 -0.000172307762
9.91 0.001582579036 -0.00581090966 -0.00017233326
9.92 0.001584129016 -0.005810471997 -0.0001723587431
9.93 0.001585678875 -0.005810033944 -0.0001723842111
9.94 0.001587228611 -0.0058095955 -0.0001724096642
9.95 0.001588778225 -0.005809156666 -0.0001724351023
9.96 0.001590327716 -0.00580871744 -0.0001724605254
9.97 0.001591877085 -0.005808277825 -0.0001724859335
9.98 0.001593426331 -0.005807837818 -0.0001725113266
9.99 0.001594975454 -0.005807397421 -0.0001725367048
10 0.001596524455 -0.005806956634 -0.0001725620679
10.01 0.001598073333 -0.005806515456 -0.0001725874161
10.02 0.001599622087 -0.005806073888 -0.0001726127492
10.03 0.001601170719 -0.005805631929 -0.0001726380673
10.04 0.001602719228 -0.00580518958 -0.0001726633705
10.05 0.001604267613 -0.005804746841 -0.0001726886586
10.06 0.001605815876 -0.005804303711 -0.0001727139318
10.07 0.001607364014 -0.005803860192 -0.0001727391899
10.08 0.00160891203 -0.005803416281 -0.000172764433
10.09 0.001610459922 -0.005802971981 -0.0001727896612
10.1 0.00161200769 -0.005802527291 -0.0001728148743
10.11 0.001613555335 -0.00580208221 -0.0001728400724
10.12 0.001615102856 -0.005801636739 -0.0001728652555
10.13 0.001616650253 -0.005801190879 -0.0001728904235
10.14 0.001618197526 -0.005800744628 -0.0001729155766
10.15 0.001619744675 -0.005800297987 -0.0001729407146
10.16 0.0016212917 -0.005799850957 -0.0001729658377
10.17 0.001622838601 -0.005799403536 -0.0001729909457
10.18 0.001624385378 -0.005798955726 -0.0001730160387
10.19 0.00162593203 -0.005798507525 -0.0001730411166
10.2 0.001627478558 -0.005798058935 -0.0001730661796
10.21 0.001629024962 -0.005797609955 -0.0001730912275
10.22 0.00163057124 -0.005797160585 -0.0001731162604
10.23 0.001632117395 -0.005796710826 -0.0001731412782
10.24 0.001633663424 -0.005796260677 -0.0001731662811
10.25 0.001635209329 -0.005795810138 -0.0001731912689
10.26 0.001636755109 -0.005795359209 -0.0001732162416
10.27 0.001638300764 -0.005794907891 -0.0001732411994
10.28 0.001639846294 -0.005794456184 -0.0001732661421
10.29 0.001641391699 -0.005794004087 -0.0001732910697
10.3 0.001642936978 -0.0057935516 -0.0001733159824
10.31 0.001644482133 -0.005793098724 -0.00017334088
10.32 0.001646027161 -0.005792645459 -0.0001733657625
10.33 0.001647572065 -0.005792191804 -0.00017339063
10.34 0.001649116843 -0.00579173776 -0.0001734154825
10.35 0.001650661495 -0.005791283326 -0.0001734403199
10.36 0.001652206022 -0.005790828503 -0.0001734651422
10.37 0.001653750423 -0.005790373291 -0.0001734899496
10.38 0.001655294698 -0.00578991769 -0.0001735147418
10.39 0.001656838847 -0.0057894617 -0.000173539519
10.4 0.00165838287 -0.00578900532 -0.0001735642812
10.41 0.001659926767 -0.005788548551 -0.0001735890283
10.42 0.001661470538 -0.005788091393 -0.0001736137604
10.43 0.001663014183 -0.005787633846 -0.0001736384774
10.44 0.001664557701 -0.005787175911 -0.0001736631793
10.45 0.001666101093 -0.005786717586 -0.0001736878662
10.46 0.001667644359 -0.005786258872 -0.000173712538
10.47 0.001669187497 -0.005785799769 -0.0001737371947
10.48 0.00167073051 -0.005785340277 -0.0001737618364
10.49 0.001672273395 -0.005784880397 -0.000173786463
10.5 0.001673816154 -0.005784420128 -0.0001738110746
10.51 0.001675358786 -0.005783959469 -0.0001738356711
10.52 0.001676901291 -0.005783498423 -0.0001738602525
10.53 0.001678443668 -0.005783036987 -0.0001738848188
10.54 0.001679985919 -0.005782575163 -0.0001739093701
10.55 0.001681528042 -0.00578211295 -0.0001739339063
10.56 0.001683070039 -0.005781650348 -0.0001739584274
10.57 0.001684611907 -0.005781187358 -0.0001739829335
10.58 0.001686153649 -0.005780723979 -0.0001740074244
10.59 0.001687695263 -0.005780260212 -0.0001740319003
10.6 0.001689236749 -0.005779796057 -0.0001740563611
10.61 0.001690778107 -0.005779331512 -0.0001740808068
10.62 0.001692319338 -0.00577886658 -0.0001741052375
10.63 0.001693860441 -0.005778401259 -0.000174129653
10.64 0.001695401416 -0.00577793555 -0.0001741540535
10.65 0.001696942263 -0.005777469452 -0.0001741784388
10.66 0.001698482982 -0.005777002966 -0.0001742028091
10.67 0.001700023573 -0.005776536092 -0.0001742271643
10.68 0.001701564035 -0.00577606883 -0.0001742515044
10.69 0.001703104369 -0.005775601179 -0.0001742758294
10.7 0.001704644575 -0.005775133141 -0.0001743001393
10.71 0.001706184652 -0.005774664714 -0.0001743244341
10.72 0.001707724601 -0.005774195899 -0.0001743487138
10.73 0.001709264421 -0.005773726696 -0.0001743729784
10.74 0.001710804112 -0.005773257105 -0.0001743972279
10.75 0.001712343675 -0.005772787126 -0.0001744214623
10.76 0.001713883108 -0.00577231676 -0.0001744456816
10.77 0.001715422413 -0.005771846005 -0.0001744698858
10.78 0.001716961589 -0.005771374862 -0.0001744940749
10.79 0.001718500635 -0.005770903332 -0.0001745182489
10.8 0.001720039552 -0.005770431413 -0.0001745424077
10.81 0.00172157834 -0.005769959107 -0.0001745665515
10.82 0.001723116999 -0.005769486414 -0.0001745906801
10.83 0.001724655528 -0.005769013332 -0.0001746147936
10.84 0.001726193928 -0.005768539863 -0.000174638892
10.85 0.001727732198 -0.005768066006 -0.0001746629753
10.86 0.001729270338 -0.005767591762 -0.0001746870435
10.87 0.001730808348 -0.00576711713 -0.0001747110966
10.88 0.001732346229 -0.00576664211 -0.0001747351345
10.89 0.00173388398 -0.005766166703 -0.0001747591573
10.9 0.001735421601 -0.005765690908 -0.000174783165
10.91 0.001736959091 -0.005765214727 -0.0001748071575
10.92 0.001738496452 -0.005764738157 -0.0001748311349
10.93 0.001740033682 -0.0057642612 -0.0001748550972
10.94 0.001741570782 -0.005763783856 -0.0001748790444
10.95 0.001743107752 -0.005763306125 -0.0001749029764
10.96 0.001744644591 -0.005762828006 -0.0001749268933
10.97 0.001746181299 -0.0057623495 -0.0001749507951
10.98 0.001747717877 -0.005761870607 -0.0001749746817
10.99 0.001749254324 -0.005761391327 -0.0001749985532
11 0.00175079064 -0.00576091166 -0.0001750224096
11.01 0.001752326826 -0.005760431605 -0.0001750462508
11.02 0.00175386288 -0.005759951163 -0.0001750700769
11.03 0.001755398804 -0.005759470335 -0.0001750938878
11.04 0.001756934596 -0.005758989119 -0.0001751176836
11.05 0.001758470257 -0.005758507517 -0.0001751414642
11.06 0.001760005787 -0.005758025527 -0.0001751652297
11.07 0.001761541185 -0.005757543151 -0.0001751889801
11.08 0.001763076452 -0.005757060387 -0.0001752127153
11.09 0.001764611587 -0.005756577237 -0.0001752364353
11.1 0.001766146591 -0.0057560937 -0.0001752601402
11.11 0.001767681463 -0.005755609777 -0.0001752838299
11.12 0.001769216204 -0.005755125466 -0.0001753075045
11.13 0.001770750812 -0.005754640769 -0.0001753311639
11.14 0.001772285289 -0.005754155686 -0.0001753548082
11.15 0.001773819634 -0.005753670215 -0.0001753784373
11.16 0.001775353846 -0.005753184358 -0.0001754020512
11.17 0.001776887927 -0.005752698115 -0.00017542565
11.18 0.001778421875 -0.005752211485 -0.0001754492336
11.19 0.001779955691 -0.005751724468 -0.000175472802
11.2 0.001781489374 -0.005751237065 -0.0001754963553
11.21 0.001783022925 -0.005750749276 -0.0001755198934
11.22 0.001784556343 -0.0057502611 -0.0001755434164
11.23 0.001786089629 -0.005749772538 -0.0001755669242
11.24 0.001787622782 -0.005749283589 -0.0001755904167
11.25 0.001789155802 -0.005748794254 -0.0001756138942
11.26 0.00179068869 -0.005748304533 -0.0001756373564
11.27 0.001792221444 -0.005747814426 -0.0001756608035
11.28 0.001793754065 -0.005747323932 -0.0001756842354
11.29 0.001795286554 -0.005746833053 -0.0001757076521
11.3 0.001796818909 -0.005746341787 -0.0001757310536
11.31 0.00179835113 -0.005745850135 -0.00017575444
11.32 0.001799883219 -0.005745358097 -0.0001757778111
11.33 0.001801415174 -0.005744865673 -0.0001758011671
11.34 0.001802946995 -0.005744372863 -0.0001758245079
11.35 0.001804478683 -0.005743879668 -0.0001758478335
11.36 0.001806010237 -0.005743386086 -0.0001758711439
11.37 0.001807541657 -0.005742892118 -0.0001758944392
11.38 0.001809072944 -0.005742397765 -0.0001759177192
11.39 0.001810604097 -0.005741903025 -0.000175940984
11.4 0.001812135115 -0.0057414079 -0.0001759642337
11.41 0.001813666 -0.00574091239 -0.0001759874681
11.42 0.00181519675 -0.005740416493 -0.0001760106874
11.43 0.001816727367 -0.005739920211 -0.0001760338914
11.44 0.001818257849 -0.005739423543 -0.0001760570803
11.45 0.001819788196 -0.005738926489 -0.0001760802539
11.46 0.001821318409 -0.00573842905 -0.0001761034124
11.47 0.001822848488 -0.005737931226 -0.0001761265556
11.48 0.001824378432 -0.005737433016 -0.0001761496837
11.49 0.001825908241 -0.00573693442 -0.0001761727965
11.5 0.001827437915 -0.005736435439 -0.0001761958941
11.51 0.001828967455 -0.005735936073 -0.0001762189765
11.52 0.001830496859 -0.005735436321 -0.0001762420437
11.53 0.001832026129 -0.005734936184 -0.0001762650957
11.54 0.001833555263 -0.005734435661 -0.0001762881325
11.55 0.001835084262 -0.005733934754 -0.000176311154
11.56 0.001836613126 -0.005733433461 -0.0001763341603
11.57 0.001838141855 -0.005732931782 -0.0001763571515
11.58 0.001839670448 -0.005732429719 -0.0001763801274
11.59 0.001841198906 -0.005731927271 -0.000176403088
11.6 0.001842727228 -0.005731424437 -0.0001764260335
11.61 0.001844255414 -0.005730921218 -0.0001764489637
11.62 0.001845783465 -0.005730417615 -0.0001764718787
11.63 0.00184731138 -0.005729913626 -0.0001764947785
11.64 0.001848839159 -0.005729409253 -0.0001765176631
11.65 0.001850366802 -0.005728904494 -0.0001765405324
11.66 0.001851894309 -0.005728399351 -0.0001765633865
11.67 0.00185342168 -0.005727893822 -0.0001765862253
11.68 0.001854948914 -0.005727387909 -0.0001766090489
11.69 0.001856476013 -0.005726881611 -0.0001766318573
11.7 0.001858002975 -0.005726374928 -0.0001766546505
11.71 0.0018595298 -0.005725867861 -0.0001766774284
11.72 0.001861056489 -0.005725360409 -0.0001767001911
11.73 0.001862583041 -0.005724852572 -0.0001767229385
11.74 0.001864109457 -0.005724344351 -0.0001767456707
11.75 0.001865635736 -0.005723835745 -0.0001767683876
11.76 0.001867161878 -0.005723326754 -0.0001767910894
11.77 0.001868687883 -0.005722817379 -0.0001768137758
11.78 0.001870213751 -0.00572230762 -0.000176836447
11.79 0.001871739482 -0.005721797476 -0.000176859103
11.8 0.001873265076 -0.005721286947 -0.0001768817437
11.81 0.001874790532 -0.005720776035 -0.0001769043692
11.82 0.001876315852 -0.005720264737 -0.0001769269794
11.83 0.001877841033 -0.005719753056 -0.0001769495743
11.84 0.001879366078 -0.00571924099 -0.000176972154
11.85 0.001880890985 -0.00571872854 -0.0001769947185
11.86 0.001882415754 -0.005718215706 -0.0001770172676
11.87 0.001883940385 -0.005717702488 -0.0001770398016
11.88 0.001885464879 -0.005717188885 -0.0001770623202
11.89 0.001886989235 -0.005716674899 -0.0001770848236
11.9 0.001888513452 -0.005716160528 -0.0001771073118
11.91 0.001890037532 -0.005715645773 -0.0001771297846
11.92 0.001891561474 -0.005715130634 -0.0001771522423
11.93 0.001893085277 -0.005714615112 -0.0001771746846
11.94 0.001894608942 -0.005714099205 -0.0001771971117
11.95 0.001896132469 -0.005713582914 -0.0001772195235
11.96 0.001897655857 -0.00571306624 -0.00017724192
11.97 0.001899179107 -0.005712549182 -0.0001772643012
11.98 0.001900702218 -0.005712031739 -0.0001772866672
11.99 0.001902225191 -0.005711513914 -0.0001773090179
12 0.001903748025 -0.005710995704 -0.0001773313533
12.01 0.00190527072 -0.005710477111 -0.0001773536735
12.02 0.001906793276 -0.005709958134 -0.0001773759784
12.03 0.001908315693 -0.005709438773 -0.000177398268
12.04 0.001909837971 -0.005708919029 -0.0001774205423
12.05 0.00191136011 -0.005708398901 -0.0001774428013
12.06 0.001912882109 -0.00570787839 -0.000177465045
12.07 0.00191440397 -0.005707357495 -0.0001774872735
12.08 0.001915925691 -0.005706836217 -0.0001775094866
12.09 0.001917447272 -0.005706314555 -0.0001775316845
12.1 0.001918968714 -0.00570579251 -0.0001775538671
12.11 0.001920490016 -0.005705270082 -0.0001775760344
12.12 0.001922011179 -0.00570474727 -0.0001775981864
12.13 0.001923532202 -0.005704224075 -0.0001776203231
12.14 0.001925053085 -0.005703700497 -0.0001776424445
12.15 0.001926573828 -0.005703176535 -0.0001776645506
12.16 0.001928094431 -0.005702652191 -0.0001776866414
12.17 0.001929614894 -0.005702127463 -0.0001777087169
12.18 0.001931135216 -0.005701602352 -0.0001777307771
12.19 0.001932655399 -0.005701076858 -0.000177752822
12.2 0.001934175441 -0.005700550981 -0.0001777748516
12.21 0.001935695343 -0.005700024721 -0.0001777968659
12.22 0.001937215104 -0.005699498078 -0.0001778188649
12.23 0.001938734725 -0.005698971052 -0.0001778408486
12.24 0.001940254205 -0.005698443643 -0.0001778628169
12.25 0.001941773544 -0.005697915851 -0.00017788477
12.26 0.001943292743 -0.005697387676 -0.0001779067077
12.27 0.0019448118 -0.005696859119 -0.0001779286302
12.28 0.001946330717 -0.005696330178 -0.0001779505373
12.29 0.001947849492 -0.005695800856 -0.0001779724291
12.3 0.001949368127 -0.00569527115 -0.0001779943056
12.31 0.00195088662 -0.005694741061 -0.0001780161667
12.32 0.001952404972 -0.005694210591 -0.0001780380126
12.33 0.001953923183 -0.005693679737 -0.0001780598431
12.34 0.001955441252 -0.005693148501 -0.0001780816583
12.35 0.00195695918 -0.005692616882 -0.0001781034582
12.36 0.001958476966 -0.005692084881 -0.0001781252427
12.37 0.00195999461 -0.005691552497 -0.000178147012
12.38 0.001961512113 -0.005691019731 -0.0001781687659
12.39 0.001963029474 -0.005690486583 -0.0001781905044
12.4 0.001964546692 -0.005689953052 -0.0001782122277
12.41 0.001966063769 -0.005689419139 -0.0001782339356
12.42 0.001967580704 -0.005688884843 -0.0001782556281
12.43 0.001969097497 -0.005688350166 -0.0001782773054
12.44 0.001970614147 -0.005687815106 -0.0001782989673
12.45 0.001972130656 -0.005687279664 -0.0001783206138
12.46 0.001973647021 -0.005686743839 -0.0001783422451
12.47 0.001975163245 -0.005686207633 -0.000178363861
12.48 0.001976679325 -0.005685671044 -0.0001783854615
12.49 0.001978195263 -0.005685134074 -0.0001784070467
12.5 0.001979711059 -0.005684596721 -0.0001784286166
12.51 0.001981226712 -0.005684058987 -0.0001784501711
12.52 0.001982742221 -0.00568352087 -0.0001784717102
12.53 0.001984257588 -0.005682982372 -0.0001784932341
12.54 0.001985772812 -0.005682443492 -0.0001785147425
12.55 0.001987287893 -0.00568190423 -0.0001785362356
12.56 0.00198880283 -0.005681364586 -0.0001785577134
12.57 0.001990317625 -0.00568082456 -0.0001785791758
12.58 0.001991832276 -0.005680284153 -0.0001786006229
12.59 0.001993346783 -0.005679743363 -0.0001786220546
12.6 0.001994861147 -0.005679202193 -0.0001786434709
12.61 0.001996375368 -0.00567866064 -0.0001786648719
12.62 0.001997889445 -0.005678118706 -0.0001786862575
12.63 0.001999403378 -0.005677576391 -0.0001787076278
12.64 0.002000917167 -0.005677033693 -0.0001787289827
12.65 0.002002430813 -0.005676490615 -0.0001787503223
12.66 0.002003944314 -0.005675947155 -0.0001787716464
12.67 0.002005457672 -0.005675403313 -0.0001787929552
12.68 0.002006970885 -0.00567485909 -0.0001788142487
12.69 0.002008483954 -0.005674314486 -0.0001788355267
12.7 0.002009996879 -0.0056737695 -0.0001788567894
12.71 0.00201150966 -0.005673224133 -0.0001788780368
12.72 0.002013022296 -0.005672678385 -0.0001788992687
12.73 0.002014534787 -0.005672132256 -0.0001789204853
12.74 0.002016047134 -0.005671585745 -0.0001789416865
12.75 0.002017559337 -0.005671038853 -0.0001789628724
12.76 0.002019071394 -0.005670491581 -0.0001789840428
12.77 0.002020583307 -0.005669943927 -0.0001790051979
12.78 0.002022095075 -0.005669395892 -0.0001790263376
12.79 0.002023606698 -0.005668847476 -0.0001790474619
12.8 0.002025118176 -0.005668298679 -0.0001790685708
12.81 0.002026629508 -0.005667749501 -0.0001790896644
12.82 0.002028140696 -0.005667199942 -0.0001791107425
12.83 0.002029651738 -0.005666650002 -0.0001791318053
12.84 0.002031162635 -0.005666099682 -0.0001791528527
12.85 0.002032673386 -0.00566554898 -0.0001791738847
12.86 0.002034183992 -0.005664997898 -0.0001791949013
12.87 0.002035694452 -0.005664446435 -0.0001792159025
12.88 0.002037204766 -0.005663894592 -0.0001792368883
12.89 0.002038714935 -0.005663342368 -0.0001792578587
12.9 0.002040224958 -0.005662789763 -0.0001792788137
12.91 0.002041734835 -0.005662236777 -0.0001792997533
12.92 0.002043244566 -0.005661683411 -0.0001793206776
12.93 0.00204475415 -0.005661129665 -0.0001793415864
12.94 0.002046263589 -0.005660575538 -0.0001793624798
12.95 0.002047772882 -0.00566002103 -0.0001793833578
12.96 0.002049282028 -0.005659466142 -0.0001794042205
12.97 0.002050791027 -0.005658910874 -0.0001794250677
12.98 0.002052299881 -0.005658355225 -0.0001794458995
12.99 0.002053808587 -0.005657799196 -0.0001794667159
13 0.002055317147 -0.005657242787 -0.0001794875169
13.01 0.002056825561 -0.005656685997 -0.0001795083025
13.02 0.002058333827 -0.005656128828 -0.0001795290726
13.03 0.002059841947 -0.005655571278 -0.0001795498274
13.04 0.00206134992 -0.005655013348 -0.0001795705667
13.05 0.002062857745 -0.005654455037 -0.0001795912906
13.06 0.002064365424 -0.005653896347 -0.0001796119991
13.07 0.002065872955 -0.005653337277 -0.0001796326922
13.08 0.002067380339 -0.005652777826 -0.0001796533699
13.09 0.002068887576 -0.005652217996 -0.0001796740322
13.1 0.002070394666 -0.005651657786 -0.000179694679
13.11 0.002071901608 -0.005651097196 -0.0001797153104
13.12 0.002073408402 -0.005650536226 -0.0001797359264
13.13 0.002074915048 -0.005649974876 -0.0001797565269
13.14 0.002076421547 -0.005649413146 -0.000179777112
13.15 0.002077927898 -0.005648851037 -0.0001797976817
13.16 0.002079434102 -0.005648288548 -0.000179818236
13.17 0.002080940157 -0.005647725679 -0.0001798387748
13.18 0.002082446064 -0.00564716243 -0.0001798592982
13.19 0.002083951823 -0.005646598802 -0.0001798798062
13.2 0.002085457434 -0.005646034794 -0.0001799002987
13.21 0.002086962897 -0.005645470407 -0.0001799207758
13.22 0.002088468211 -0.00564490564 -0.0001799412375
13.23 0.002089973377 -0.005644340494 -0.0001799616837
13.24 0.002091478394 -0.005643774968 -0.0001799821145
13.25 0.002092983263 -0.005643209063 -0.0001800025299
13.26 0.002094487983 -0.005642642779 -0.0001800229298
13.27 0.002095992554 -0.005642076115 -0.0001800433142
13.28 0.002097496976 -0.005641509071 -0.0001800636832
13.29 0.00209900125 -0.005640941649 -0.0001800840368
13.3 0.002100505374 -0.005640373847 -0.0001801043749
13.31 0.00210200935 -0.005639805666 -0.0001801246976
13.32 0.002103513176 -0.005639237106 -0.0001801450048
13.33 0.002105016853 -0.005638668167 -0.0001801652966
13.34 0.002106520381 -0.005638098849 -0.0001801855729
13.35 0.00210802376 -0.005637529151 -0.0001802058337
13.36 0.002109526989 -0.005636959075 -0.0001802260791
13.37 0.002111030068 -0.005636388619 -0.0001802463091
13.38 0.002112532998 -0.005635817785 -0.0001802665236
13.39 0.002114035778 -0.005635246572 -0.0001802867226
13.4 0.002115538408 -0.005634674979 -0.0001803069062
13.41 0.002117040889 -0.005634103008 -0.0001803270743
13.42 0.002118543219 -0.005633530658 -0.0001803472269
13.43 0.0021200454 -0.00563295793 -0.0001803673641
13.44 0.00212154743 -0.005632384822 -0.0001803874858
13.45 0.002123049311 -0.005631811336 -0.0001804075921
13.46 0.002124551041 -0.005631237471 -0.0001804276829
13.47 0.00212605262 -0.005630663228 -0.0001804477582
13.48 0.00212755405 -0.005630088606 -0.000180467818
13.49 0.002129055329 -0.005629513605 -0.0001804878624
13.5 0.002130556457 -0.005628938226 -0.0001805078913
13.51 0.002132057435 -0.005628362468 -0.0001805279047
13.52 0.002133558262 -0.005627786332 -0.0001805479027
13.53 0.002135058938 -0.005627209817 -0.0001805678851
13.54 0.002136559463 -0.005626632924 -0.0001805878521
13.55 0.002138059838 -0.005626055652 -0.0001806078036
13.56 0.002139560061 -0.005625478003 -0.0001806277397
13.57 0.002141060133 -0.005624899974 -0.0001806476602
13.58 0.002142560054 -0.005624321568 -0.0001806675653
13.59 0.002144059824 -0.005623742784 -0.0001806874549
13.6 0.002145559443 -0.005623163621 -0.000180707329
13.61 0.00214705891 -0.00562258408 -0.0001807271876
13.62 0.002148558225 -0.005622004161 -0.0001807470307
13.63 0.002150057389 -0.005621423864 -0.0001807668584
13.64 0.002151556402 -0.005620843188 -0.0001807866705
13.65 0.002153055262 -0.005620262135 -0.0001808064672
13.66 0.002154553971 -0.005619680704 -0.0001808262483
13.67 0.002156052528 -0.005619098895 -0.000180846014
13.68 0.002157550933 -0.005618516708 -0.0001808657642
13.69 0.002159049186 -0.005617934143 -0.0001808854988
13.7 0.002160547287 -0.0056173512 -0.000180905218
13.71 0.002162045236 -0.005616767879 -0.0001809249217
13.72 0.002163543032 -0.005616184181 -0.0001809446099
13.73 0.002165040676 -0.005615600105 -0.0001809642825
13.74 0.002166538168 -0.005615015651 -0.0001809839397
13.75 0.002168035507 -0.005614430819 -0.0001810035814
13.76 0.002169532693 -0.00561384561 -0.0001810232076
13.77 0.002171029727 -0.005613260024 -0.0001810428182
13.78 0.002172526608 -0.005612674059 -0.0001810624134
13.79 0.002174023336 -0.005612087717 -0.000181081993
13.8 0.002175519912 -0.005611500998 -0.0001811015571
13.81 0.002177016334 -0.005610913901 -0.0001811211057
13.82 0.002178512603 -0.005610326427 -0.0001811406388
13.83 0.00218000872 -0.005609738575 -0.0001811601564
13.84 0.002181504682 -0.005609150347 -0.0001811796585
13.85 0.002183000492 -0.00560856174 -0.0001811991451
13.86 0.002184496149 -0.005607972757 -0.0001812186161
13.87 0.002185991651 -0.005607383396 -0.0001812380716
13.88 0.002187487001 -0.005606793658 -0.0001812575116
13.89 0.002188982196 -0.005606203543 -0.0001812769361
13.9 0.002190477239 -0.00560561305 -0.0001812963451
13.91 0.002191972127 -0.005605022181 -0.0001813157385
13.92 0.002193466861 -0.005604430934 -0.0001813351164
13.93 0.002194961442 -0.005603839311 -0.0001813544788
13.94 0.002196455868 -0.00560324731 -0.0001813738256
13.95 0.002197950141 -0.005602654933 -0.000181393157
13.96 0.002199444259 -0.005602062178 -0.0001814124728
13.97 0.002200938223 -0.005601469047 -0.000181431773
13.98 0.002202432033 -0.005600875539 -0.0001814510578
13.99 0.002203925689 -0.005600281654 -0.0001814703269
14 0.00220541919 -0.005599687392 -0.0001814895806
14.01 0.002206912536 -0.005599092753 -0.0001815088187
14.02 0.002208405728 -0.005598497738 -0.0001815280413
14.03 0.002209898765 -0.005597902346 -0.0001815472484
14.04 0.002211391647 -0.005597306577 -0.0001815664399
14.05 0.002212884375 -0.005596710432 -0.0001815856158
14.06 0.002214376948 -0.00559611391 -0.0001816047763
14.07 0.002215869365 -0.005595517012 -0.0001816239212
14.08 0.002217361628 -0.005594919737 -0.0001816430505
14.09 0.002218853735 -0.005594322085 -0.0001816621643
14.1 0.002220345687 -0.005593724058 -0.0001816812625
14.11 0.002221837484 -0.005593125653 -0.0001817003452
14.12 0.002223329125 -0.005592526873 -0.0001817194124
14.13 0.002224820611 -0.005591927716 -0.000181738464
14.14 0.002226311941 -0.005591328183 -0.0001817575
14.15 0.002227803116 -0.005590728273 -0.0001817765205
14.16 0.002229294135 -0.005590127987 -0.0001817955254
14.17 0.002230784998 -0.005589527325 -0.0001818145148
14.18 0.002232275706 -0.005588926287 -0.0001818334886
14.19 0.002233766257 -0.005588324873 -0.0001818524469
14.2 0.002235256652 -0.005587723083 -0.0001818713896
14.21 0.002236746892 -0.005587120917 -0.0001818903167
14.22 0.002238236975 -0.005586518374 -0.0001819092283
14.23 0.002239726902 -0.005585915456 -0.0001819281243
14.24 0.002241216672 -0.005585312162 -0.0001819470048
14.25 0.002242706286 -0.005584708492 -0.0001819658696
14.26 0.002244195744 -0.005584104445 -0.000181984719
14.27 0.002245685045 -0.005583500024 -0.0001820035527
14.28 0.00224717419 -0.005582895226 -0.0001820223709
14.29 0.002248663177 -0.005582290052 -0.0001820411735
14.3 0.002250152008 -0.005581684503 -0.0001820599605
14.31 0.002251640682 -0.005581078578 -0.000182078732
14.32 0.002253129199 -0.005580472278 -0.0001820974879
14.33 0.002254617559 -0.005579865602 -0.0001821162282
14.34 0.002256105762 -0.00557925855 -0.000182134953
14.35 0.002257593808 -0.005578651122 -0.0001821536621
14.36 0.002259081697 -0.00557804332 -0.0001821723557
14.37 0.002260569428 -0.005577435141 -0.0001821910337
14.38 0.002262057001 -0.005576826587 -0.0001822096961
14.39 0.002263544418 -0.005576217658 -0.000182228343
14.4 0.002265031676 -0.005575608354 -0.0001822469742
14.41 0.002266518777 -0.005574998674 -0.0001822655899
14.42 0.002268005721 -0.005574388618 -0.00018228419
14.43 0.002269492506 -0.005573778188 -0.0001823027745
14.44 0.002270979134 -0.005573167382 -0.0001823213434
14.45 0.002272465603 -0.005572556201 -0.0001823398967
14.46 0.002273951915 -0.005571944645 -0.0001823584344
14.47 0.002275438068 -0.005571332714 -0.0001823769566
14.48 0.002276924063 -0.005570720407 -0.0001823954631
14.49 0.0022784099 -0.005570107726 -0.0001824139541
14.5 0.002279895579 -0.00556949467 -0.0001824324294
14.51 0.002281381099 -0.005568881238 -0.0001824508892
14.52 0.002282866461 -0.005568267432 -0.0001824693333
14.53 0.002284351664 -0.00556765325 -0.0001824877619
14.54 0.002285836708 -0.005567038694 -0.0001825061748
14.55 0.002287321594 -0.005566423763 -0.0001825245722
14.56 0.002288806321 -0.005565808457 -0.0001825429539
14.57 0.002290290889 -0.005565192777 -0.0001825613201
14.58 0.002291775297 -0.005564576721 -0.0001825796706
14.59 0.002293259547 -0.005563960291 -0.0001825980056
14.6 0.002294743638 -0.005563343486 -0.0001826163249
14.61 0.00229622757 -0.005562726307 -0.0001826346286
14.62 0.002297711342 -0.005562108753 -0.0001826529167
14.63 0.002299194955 -0.005561490824 -0.0001826711892
14.64 0.002300678408 -0.005560872521 -0.0001826894461
14.65 0.002302161702 -0.005560253844 -0.0001827076874
14.66 0.002303644837 -0.005559634792 -0.000182725913
14.67 0.002305127811 -0.005559015365 -0.0001827441231
14.68 0.002306610626 -0.005558395564 -0.0001827623175
14.69 0.002308093281 -0.005557775389 -0.0001827804963
14.7 0.002309575776 -0.00555715484 -0.0001827986595
14.71 0.002311058112 -0.005556533916 -0.000182816807
14.72 0.002312540287 -0.005555912618 -0.000182834939
14.73 0.002314022302 -0.005555290946 -0.0001828530553
14.74 0.002315504156 -0.005554668899 -0.000182871156
14.75 0.002316985851 -0.005554046479 -0.0001828892411
14.76 0.002318467385 -0.005553423684 -0.0001829073105
14.77 0.002319948758 -0.005552800515 -0.0001829253643
14.78 0.002321429971 -0.005552176972 -0.0001829434025
14.79 0.002322911024 -0.005551553056 -0.0001829614251
14.8 0.002324391916 -0.005550928765 -0.000182979432
14.81 0.002325872647 -0.0055503041 -0.0001829974233
14.82 0.002327353217 -0.005549679062 -0.0001830153989
14.83 0.002328833626 -0.005549053649 -0.0001830333589
14.84 0.002330313874 -0.005548427863 -0.0001830513033
14.85 0.002331793962 -0.005547801703 -0.0001830692321
14.86 0.002333273888 -0.005547175169 -0.0001830871452
14.87 0.002334753652 -0.005546548262 -0.0001831050427
14.88 0.002336233256 -0.005545920981 -0.0001831229245
14.89 0.002337712698 -0.005545293326 -0.0001831407907
14.9 0.002339191979 -0.005544665298 -0.0001831586412
14.91 0.002340671098 -0.005544036896 -0.0001831764761
14.92 0.002342150055 -0.00554340812 -0.0001831942954
14.93 0.002343628851 -0.005542778971 -0.000183212099
14.94 0.002345107485 -0.005542149449 -0.0001832298869
14.95 0.002346585957 -0.005541519553 -0.0001832476592
14.96 0.002348064267 -0.005540889284 -0.0001832654159
14.97 0.002349542416 -0.005540258641 -0.0001832831569
14.98 0.002351020402 -0.005539627625 -0.0001833008822
14.99 0.002352498226 -0.005538996236 -0.0001833185919
15 0.002353975887 -0.005538364473 -0.000183336286
15.01 0.002355453387 -0.005537732338 -0.0001833539644
15.02 0.002356930724 -0.005537099829 -0.0001833716271
15.03 0.002358407898 -0.005536466947 -0.0001833892742
15.04 0.00235988491 -0.005535833692 -0.0001834069056
15.05 0.00236136176 -0.005535200064 -0.0001834245213
15.06 0.002362838446 -0.005534566062 -0.0001834421214
15.07 0.00236431497 -0.005533931688 -0.0001834597059
15.08 0.002365791331 -0.005533296941 -0.0001834772746
15.09 0.002367267529 -0.005532661821 -0.0001834948277
15.1 0.002368743564 -0.005532026328 -0.0001835123651
15.11 0.002370219436 -0.005531390462 -0.0001835298869
15.12 0.002371695145 -0.005530754223 -0.000183547393
15.13 0.002373170691 -0.005530117612 -0.0001835648834
15.14 0.002374646073 -0.005529480628 -0.0001835823582
15.15 0.002376121292 -0.005528843271 -0.0001835998172
15.16 0.002377596347 -0.005528205541 -0.0001836172606
15.17 0.002379071239 -0.005527567439 -0.0001836346884
15.18 0.002380545967 -0.005526928964 -0.0001836521004
15.19 0.002382020532 -0.005526290117 -0.0001836694968
15.2 0.002383494932 -0.005525650897 -0.0001836868775
15.21 0.002384969169 -0.005525011305 -0.0001837042425
15.22 0.002386443242 -0.00552437134 -0.0001837215919
15.23 0.002387917151 -0.005523731002 -0.0001837389255
15.24 0.002389390895 -0.005523090293 -0.0001837562435
15.25 0.002390864476 -0.005522449211 -0.0001837735458
15.26 0.002392337892 -0.005521807756 -0.0001837908324
15.27 0.002393811144 -0.00552116593 -0.0001838081033
15.28 0.002395284232 -0.005520523731 -0.0001838253585
15.29 0.002396757155 -0.005519881159 -0.0001838425981
15.3 0.002398229913 -0.005519238216 -0.0001838598219
15.31 0.002399702507 -0.005518594901 -0.0001838770301
15.32 0.002401174936 -0.005517951213 -0.0001838942225
15.33 0.002402647201 -0.005517307154 -0.0001839113993
15.34 0.0024041193 -0.005516662722 -0.0001839285604
15.35 0.002405591234 -0.005516017918 -0.0001839457058
15.36 0.002407063004 -0.005515372743 -0.0001839628355
15.37 0.002408534608 -0.005514727195 -0.0001839799495
15.38 0.002410006047 -0.005514081276 -0.0001839970477
15.39 0.002411477321 -0.005513434985 -0.0001840141303
15.4 0.00241294843 -0.005512788321 -0.0001840311972
15.41 0.002414419373 -0.005512141287 -0.0001840482484
15.42 0.002415890151 -0.00551149388 -0.0001840652839
15.43 0.002417360763 -0.005510846102 -0.0001840823037
15.44 0.002418831209 -0.005510197952 -0.0001840993077
15.45 0.00242030149 -0.00550954943 -0.0001841162961
15.46 0.002421771605 -0.005508900537 -0.0001841332688
15.47 0.002423241554 -0.005508251272 -0.0001841502257
15.48 0.002424711337 -0.005507601636 -0.0001841671669
15.49 0.002426180954 -0.005506951628 -0.0001841840925
15.5 0.002427650405 -0.005506301249 -0.0001842010023
15.51 0.002429119689 -0.005505650498 -0.0001842178964
15.52 0.002430588808 -0.005504999376 -0.0001842347748
15.53 0.00243205776 -0.005504347882 -0.0001842516374
15.54 0.002433526546 -0.005503696018 -0.0001842684844
15.55 0.002434995165 -0.005503043782 -0.0001842853156
15.56 0.002436463617 -0.005502391174 -0.0001843021311
15.57 0.002437931903 -0.005501738196 -0.0001843189309
15.58 0.002439400023 -0.005501084846 -0.000184335715
15.59 0.002440867975 -0.005500431126 -0.0001843524833
15.6 0.00244233576 -0.005499777034 -0.0001843692359
15.61 0.002443803379 -0.005499122571 -0.0001843859728
15.62 0.002445270831 -0.005498467737 -0.000184402694
15.63 0.002446738115 -0.005497812532 -0.0001844193994
15.64 0.002448205232 -0.005497156956 -0.0001844360892
15.65 0.002449672182 -0.005496501009 -0.0001844527631
15.66 0.002451138965 -0.005495844691 -0.0001844694214
15.67 0.00245260558 -0.005495188003 -0.0001844860639
15.68 0.002454072027 -0.005494530944 -0.0001845026907
15.69 0.002455538307 -0.005493873513 -0.0001845193017
15.7 0.00245700442 -0.005493215713 -0.0001845358971
15.71 0.002458470364 -0.005492557541 -0.0001845524766
15.72 0.002459936141 -0.005491898999 -0.0001845690405
15.73 0.00246140175 -0.005491240086 -0.0001845855886
15.74 0.002462867191 -0.005490580802 -0.0001846021209
15.75 0.002464332464 -0.005489921148 -0.0001846186376
15.76 0.002465797569 -0.005489261124 -0.0001846351384
15.77 0.002467262505 -0.005488600729 -0.0001846516236
15.78 0.002468727273 -0.005487939963 -0.000184668093
15.79 0.002470191873 -0.005487278827 -0.0001846845466
15.8 0.002471656305 -0.005486617321 -0.0001847009845
15.81 0.002473120568 -0.005485955445 -0.0001847174067
15.82 0.002474584662 -0.005485293198 -0.0001847338131
15.83 0.002476048588 -0.005484630581 -0.0001847502037
15.84 0.002477512345 -0.005483967593 -0.0001847665786
15.85 0.002478975933 -0.005483304235 -0.0001847829378
15.86 0.002480439352 -0.005482640508 -0.0001847992812
15.87 0.002481902603 -0.00548197641 -0.0001848156088
15.88 0.002483365684 -0.005481311942 -0.0001848319207
15.89 0.002484828596 -0.005480647104 -0.0001848482168
15.9 0.002486291339 -0.005479981896 -0.0001848644972
15.91 0.002487753912 -0.005479316318 -0.0001848807618
15.92 0.002489216317 -0.00547865037 -0.0001848970106
15.93 0.002490678552 -0.005477984052 -0.0001849132437
15.94 0.002492140617 -0.005477317364 -0.000184929461
15.95 0.002493602512 -0.005476650307 -0.0001849456626
15.96 0.002495064239 -0.005475982879 -0.0001849618484
15.97 0.002496525795 -0.005475315082 -0.0001849780184
15.98 0.002497987181 -0.005474646915 -0.0001849941727
15.99 0.002499448398 -0.005473978379 -0.0001850103112
16 0.002500909444 -0.005473309472 -0.0001850264339
16.01 0.002502370321 -0.005472640197 -0.0001850425409
16.02 0.002503831027 -0.005471970551 -0.000185058632
16.03 0.002505291563 -0.005471300536 -0.0001850747075
16.04 0.002506751929 -0.005470630152 -0.0001850907671
16.05 0.002508212125 -0.005469959398 -0.000185106811
16.06 0.00250967215 -0.005469288274 -0.0001851228391
16.07 0.002511132004 -0.005468616782 -0.0001851388514
16.08 0.002512591688 -0.005467944919 -0.0001851548479
16.09 0.002514051202 -0.005467272688 -0.0001851708286
16.1 0.002515510544 -0.005466600087 -0.0001851867936
16.11 0.002516969716 -0.005465927117 -0.0001852027428
16.12 0.002518428716 -0.005465253778 -0.0001852186762
16.13 0.002519887546 -0.00546458007 -0.0001852345938
16.14 0.002521346205 -0.005463905992 -0.0001852504957
16.15 0.002522804693 -0.005463231545 -0.0001852663817
16.16 0.002524263009 -0.005462556729 -0.000185282252
16.17 0.002525721154 -0.005461881545 -0.0001852981065
16.18 0.002527179128 -0.005461205991 -0.0001853139452
16.19 0.00252863693 -0.005460530068 -0.0001853297681
16.2 0.002530094561 -0.005459853776 -0.0001853455752
16.21 0.00253155202 -0.005459177116 -0.0001853613665
16.22 0.002533009307 -0.005458500086 -0.000185377142
16.23 0.002534466423 -0.005457822688 -0.0001853929018
16.24 0.002535923367 -0.005457144921 -0.0001854086457
16.25 0.002537380139 -0.005456466785 -0.0001854243738
16.26 0.002538836739 -0.005455788281 -0.0001854400862
16.27 0.002540293167 -0.005455109408 -0.0001854557827
16.28 0.002541749422 -0.005454430166 -0.0001854714635
16.29 0.002543205506 -0.005453750555 -0.0001854871284
16.3 0.002544661417 -0.005453070576 -0.0001855027775
16.31 0.002546117156 -0.005452390229 -0.0001855184109
16.32 0.002547572723 -0.005451709513 -0.0001855340284
16.33 0.002549028116 -0.005451028428 -0.0001855496301
16.34 0.002550483338 -0.005450346976 -0.000185565216
16.35 0.002551938386 -0.005449665154 -0.0001855807861
16.36 0.002553393262 -0.005448982965 -0.0001855963404
16.37 0.002554847965 -0.005448300407 -0.0001856118789
16.38 0.002556302495 -0.005447617481 -0.0001856274016
16.39 0.002557756852 -0.005446934186 -0.0001856429085
16.4 0.002559211036 -0.005446250524 -0.0001856583995
16.41 0.002560665047 -0.005445566493 -0.0001856738748
16.42 0.002562118885 -0.005444882094 -0.0001856893342
16.43 0.002563572549 -0.005444197327 -0.0001857047778
16.44 0.00256502604 -0.005443512192 -0.0001857202056
16.45 0.002566479358 -0.005442826689 -0.0001857356175
16.46 0.002567932502 -0.005442140818 -0.0001857510137
16.47 0.002569385472 -0.005441454579 -0.000185766394
16.48 0.002570838269 -0.005440767972 -0.0001857817585
16.49 0.002572290892 -0.005440080997 -0.0001857971072
16.5 0.002573743341 -0.005439393654 -0.0001858124401
16.51 0.002575195616 -0.005438705944 -0.0001858277571
16.52 0.002576647717 -0.005438017865 -0.0001858430583
16.53 0.002578099645 -0.00543732942 -0.0001858583437
16.54 0.002579551397 -0.005436640606 -0.0001858736133
16.55 0.002581002976 -0.005435951425 -0.000185888867
16.56 0.002582454381 -0.005435261876 -0.0001859041049
16.57 0.002583905611 -0.005434571959 -0.0001859193269
16.58 0.002585356666 -0.005433881675 -0.0001859345332
16.59 0.002586807548 -0.005433191024 -0.0001859497236
16.6 0.002588258254 -0.005432500005 -0.0001859648981
16.61 0.002589708786 -0.005431808618 -0.0001859800568
16.62 0.002591159143 -0.005431116864 -0.0001859951997
16.63 0.002592609325 -0.005430424743 -0.0001860103268
16.64 0.002594059332 -0.005429732255 -0.000186025438
16.65 0.002595509165 -0.005429039399 -0.0001860405334
16.66 0.002596958822 -0.005428346176 -0.0001860556129
16.67 0.002598408304 -0.005427652585 -0.0001860706766
16.68 0.002599857611 -0.005426958628 -0.0001860857244
16.69 0.002601306742 -0.005426264303 -0.0001861007564
16.7 0.002602755698 -0.005425569612 -0.0001861157726
16.71 0.002604204479 -0.005424874553 -0.0001861307729
16.72 0.002605653084 -0.005424179127 -0.0001861457573
16.73 0.002607101514 -0.005423483334 -0.0001861607259
16.74 0.002608549768 -0.005422787174 -0.0001861756787
16.75 0.002609997846 -0.005422090648 -0.0001861906156
16.76 0.002611445748 -0.005421393754 -0.0001862055367
16.77 0.002612893474 -0.005420696494 -0.0001862204419
16.78 0.002614341024 -0.005419998866 -0.0001862353312
16.79 0.002615788399 -0.005419300872 -0.0001862502047
16.8 0.002617235597 -0.005418602512 -0.0001862650623
16.81 0.002618682619 -0.005417903784 -0.0001862799041
16.82 0.002620129464 -0.00541720469 -0.00018629473
16.83 0.002621576133 -0.005416505229 -0.0001863095401
16.84 0.002623022626 -0.005415805402 -0.0001863243343
16.85 0.002624468942 -0.005415105208 -0.0001863391126
16.86 0.002625915082 -0.005414404647 -0.0001863538751
16.87 0.002627361045 -0.00541370372 -0.0001863686217
16.88 0.002628806831 -0.005413002427 -0.0001863833525
16.89 0.00263025244 -0.005412300767 -0.0001863980673
16.9 0.002631697873 -0.005411598741 -0.0001864127664
16.91 0.002633143128 -0.005410896349 -0.0001864274495
16.92 0.002634588206 -0.00541019359 -0.0001864421168
16.93 0.002636033107 -0.005409490465 -0.0001864567682
16.94 0.002637477831 -0.005408786974 -0.0001864714037
16.95 0.002638922378 -0.005408083116 -0.0001864860234
16.96 0.002640366747 -0.005407378892 -0.0001865006272
16.97 0.002641810939 -0.005406674303 -0.0001865152151
16.98 0.002643254953 -0.005405969347 -0.0001865297871
16.99 0.00264469879 -0.005405264025 -0.0001865443433
17 0.002646142448 -0.005404558337 -0.0001865588836
17.01 0.00264758593 -0.005403852283 -0.000186573408
17.02 0.002649029233 -0.005403145863 -0.0001865879165
17.03 0.002650472358 -0.005402439078 -0.0001866024092
17.04 0.002651915306 -0.005401731926 -0.0001866168859
17.05 0.002653358075 -0.005401024409 -0.0001866313468
17.06 0.002654800666 -0.005400316526 -0.0001866457918
17.07 0.002656243079 -0.005399608277 -0.0001866602209
17.08 0.002657685314 -0.005398899662 -0.0001866746341
17.09 0.00265912737 -0.005398190682 -0.0001866890315
17.1 0.002660569248 -0.005397481336 -0.0001867034129
17.11 0.002662010947 -0.005396771624 -0.0001867177785
17.12 0.002663452467 -0.005396061547 -0.0001867321282
17.13 0.002664893809 -0.005395351105 -0.0001867464619
17.14 0.002666334973 -0.005394640297 -0.0001867607798
17.15 0.002667775957 -0.005393929123 -0.0001867750818
17.16 0.002669216762 -0.005393217584 -0.0001867893679
17.17 0.002670657389 -0.00539250568 -0.0001868036381
17.18 0.002672097836 -0.00539179341 -0.0001868178924
17.19 0.002673538104 -0.005391080775 -0.0001868321309
17.2 0.002674978193 -0.005390367775 -0.0001868463534
17.21 0.002676418103 -0.005389654409 -0.00018686056
17.22 0.002677857833 -0.005388940679 -0.0001868747507
17.23 0.002679297384 -0.005388226583 -0.0001868889255
17.24 0.002680736755 -0.005387512122 -0.0001869030844
17.25 0.002682175946 -0.005386797296 -0.0001869172274
17.26 0.002683614958 -0.005386082104 -0.0001869313545
17.27 0.002685053791 -0.005385366548 -0.0001869454657
17.28 0.002686492443 -0.005384650627 -0.000186959561
17.29 0.002687930915 -0.005383934341 -0.0001869736404
17.3 0.002689369208 -0.00538321769 -0.0001869877038
17.31 0.00269080732 -0.005382500674 -0.0001870017514
17.32 0.002692245252 -0.005381783294 -0.0001870157831
17.33 0.002693683004 -0.005381065548 -0.0001870297988
17.34 0.002695120576 -0.005380347438 -0.0001870437986
17.35 0.002696557967 -0.005379628963 -0.0001870577825
17.36 0.002697995178 -0.005378910124 -0.0001870717505
17.37 0.002699432208 -0.005378190919 -0.0001870857026
17.38 0.002700869058 -0.005377471351 -0.0001870996388
17.39 0.002702305726 -0.005376751417 -0.000187113559
17.4 0.002703742215 -0.005376031119 -0.0001871274633
17.41 0.002705178522 -0.005375310457 -0.0001871413517
17.42 0.002706614648 -0.00537458943 -0.0001871552242
17.43 0.002708050594 -0.005373868039 -0.0001871690808
17.44 0.002709486358 -0.005373146283 -0.0001871829214
17.45 0.002710921941 -0.005372424163 -0.0001871967461
17.46 0.002712357343 -0.005371701679 -0.0001872105549
17.47 0.002713792564 -0.00537097883 -0.0001872243478
17.48 0.002715227603 -0.005370255617 -0.0001872381247
17.49 0.002716662461 -0.00536953204 -0.0001872518857
17.5 0.002718097137 -0.005368808099 -0.0001872656308
17.51 0.002719531632 -0.005368083794 -0.0001872793599
17.52 0.002720965945 -0.005367359124 -0.0001872930731
17.53 0.002722400076 -0.005366634091 -0.0001873067704
17.54 0.002723834025 -0.005365908693 -0.0001873204517
17.55 0.002725267793 -0.005365182932 -0.0001873341171
17.56 0.002726701378 -0.005364456806 -0.0001873477666
17.57 0.002728134781 -0.005363730317 -0.0001873614001
17.58 0.002729568003 -0.005363003464 -0.0001873750177
17.59 0.002731001041 -0.005362276247 -0.0001873886194
17.6 0.002732433898 -0.005361548666 -0.0001874022051
17.61 0.002733866572 -0.005360820722 -0.0001874157749
17.62 0.002735299064 -0.005360092413 -0.0001874293287
17.63 0.002736731373 -0.005359363741 -0.0001874428666
17.64 0.0027381635 -0.005358634706 -0.0001874563886
17.65 0.002739595444 -0.005357905307 -0.0001874698946
17.66 0.002741027205 -0.005357175544 -0.0001874833846
17.67 0.002742458784 -0.005356445418 -0.0001874968588
17.68 0.002743890179 -0.005355714928 -0.0001875103169
17.69 0.002745321392 -0.005354984075 -0.0001875237591
17.7 0.002746752421 -0.005354252858 -0.0001875371854
17.71 0.002748183267 -0.005353521278 -0.0001875505957
17.72 0.00274961393 -0.005352789334 -0.0001875639901
17.73 0.00275104441 -0.005352057028 -0.0001875773685
17.74 0.002752474706 -0.005351324358 -0.0001875907309
17.75 0.002753904819 -0.005350591325 -0.0001876040774
17.76 0.002755334748 -0.005349857928 -0.000187617408
17.77 0.002756764494 -0.005349124169 -0.0001876307226
17.78 0.002758194056 -0.005348390046 -0.0001876440212
17.79 0.002759623434 -0.00534765556 -0.0001876573039
17.8 0.002761052629 -0.005346920712 -0.0001876705706
17.81 0.002762481639 -0.0053461855 -0.0001876838213
17.82 0.002763910465 -0.005345449925 -0.0001876970561
17.83 0.002765339108 -0.005344713987 -0.0001877102749
17.84 0.002766767566 -0.005343977687 -0.0001877234778
17.85 0.00276819584 -0.005343241023 -0.0001877366647
17.86 0.00276962393 -0.005342503997 -0.0001877498356
17.87 0.002771051835 -0.005341766608 -0.0001877629905
17.88 0.002772479556 -0.005341028856 -0.0001877761295
17.89 0.002773907092 -0.005340290741 -0.0001877892526
17.9 0.002775334444 -0.005339552264 -0.0001878023596
17.91 0.002776761611 -0.005338813424 -0.0001878154507
17.92 0.002778188594 -0.005338074222 -0.0001878285258
17.93 0.002779615391 -0.005337334657 -0.0001878415849
17.94 0.002781042003 -0.005336594729 -0.0001878546281
17.95 0.002782468431 -0.005335854439 -0.0001878676553
17.96 0.002783894673 -0.005335113787 -0.0001878806665
17.97 0.002785320731 -0.005334372772 -0.0001878936617
17.98 0.002786746603 -0.005333631395 -0.000187906641
17.99 0.00278817229 -0.005332889655 -0.0001879196042
18 0.002789597791 -0.005332147553 -0.0001879325515
18.01 0.002791023107 -0.005331405089 -0.0001879454828
18.02 0.002792448237 -0.005330662263 -0.0001879583982
18.03 0.002793873182 -0.005329919074 -0.0001879712975
18.04 0.002795297941 -0.005329175523 -0.0001879841809
18.05 0.002796722515 -0.00532843161 -0.0001879970482
18.06 0.002798146902 -0.005327687335 -0.0001880098996
18.07 0.002799571104 -0.005326942698 -0.000188022735
18.08 0.002800995119 -0.005326197699 -0.0001880355544
18.09 0.002802418949 -0.005325452338 -0.0001880483579
18.1 0.002803842592 -0.005324706616 -0.0001880611453
18.11 0.00280526605 -0.005323960531 -0.0001880739167
18.12 0.00280668932 -0.005323214084 -0.0001880866722
18.13 0.002808112405 -0.005322467276 -0.0001880994116
18.14 0.002809535303 -0.005321720106 -0.0001881121351
18.15 0.002810958014 -0.005320972574 -0.0001881248426
18.16 0.002812380539 -0.00532022468 -0.000188137534
18.17 0.002813802878 -0.005319476425 -0.0001881502095
18.18 0.002815225029 -0.005318727808 -0.000188162869
18.19 0.002816646994 -0.005317978829 -0.0001881755125
18.2 0.002818068771 -0.005317229489 -0.0001881881399
18.21 0.002819490362 -0.005316479788 -0.0001882007514
18.22 0.002820911766 -0.005315729724 -0.0001882133469
18.23 0.002822332982 -0.0053149793 -0.0001882259264
18.24 0.002823754011 -0.005314228514 -0.0001882384898
18.25 0.002825174853 -0.005313477367 -0.0001882510373
18.26 0.002826595508 -0.005312725858 -0.0001882635687
18.27 0.002828015975 -0.005311973988 -0.0001882760842
18.28 0.002829436255 -0.005311221757 -0.0001882885836
18.29 0.002830856347 -0.005310469165 -0.0001883010671
18.3 0.002832276251 -0.005309716211 -0.0001883135345
18.31 0.002833695968 -0.005308962896 -0.0001883259859
18.32 0.002835115496 -0.005308209221 -0.0001883384213
18.33 0.002836534837 -0.005307455184 -0.0001883508407
18.34 0.00283795399 -0.005306700786 -0.000188363244
18.35 0.002839372955 -0.005305946027 -0.0001883756314
18.36 0.002840791732 -0.005305190907 -0.0001883880027
18.37 0.00284221032 -0.005304435426 -0.0001884003581
18.38 0.00284362872 -0.005303679585 -0.0001884126974
18.39 0.002845046932 -0.005302923382 -0.0001884250206
18.4 0.002846464955 -0.005302166819 -0.0001884373279
18.41 0.00284788279 -0.005301409895 -0.0001884496192
18.42 0.002849300436 -0.00530065261 -0.0001884618944
18.43 0.002850717894 -0.005299894965 -0.0001884741536
18.44 0.002852135162 -0.005299136959 -0.0001884863968
18.45 0.002853552242 -0.005298378592 -0.0001884986239
18.46 0.002854969133 -0.005297619865 -0.000188510835
18.47 0.002856385835 -0.005296860777 -0.0001885230301
18.48 0.002857802348 -0.005296101328 -0.0001885352092
18.49 0.002859218672 -0.00529534152 -0.0001885473723
18.5 0.002860634806 -0.00529458135 -0.0001885595193
18.51 0.002862050752 -0.005293820821 -0.0001885716502
18.52 0.002863466508 -0.005293059931 -0.0001885837652
18.53 0.002864882074 -0.005292298681 -0.0001885958641
18.54 0.002866297451 -0.00529153707 -0.000188607947
18.55 0.002867712638 -0.005290775099 -0.0001886200139
18.56 0.002869127636 -0.005290012768 -0.0001886320647
18.57 0.002870542444 -0.005289250077 -0.0001886440995
18.58 0.002871957062 -0.005288487026 -0.0001886561182
18.59 0.00287337149 -0.005287723614 -0.0001886681209
18.6 0.002874785728 -0.005286959843 -0.0001886801076
18.61 0.002876199777 -0.005286195712 -0.0001886920782
18.62 0.002877613635 -0.00528543122 -0.0001887040328
18.63 0.002879027302 -0.005284666369 -0.0001887159713
18.64 0.00288044078 -0.005283901158 -0.0001887278938
18.65 0.002881854067 -0.005283135586 -0.0001887398003
18.66 0.002883267164 -0.005282369656 -0.0001887516907
18.67 0.00288468007 -0.005281603365 -0.000188763565
18.68 0.002886092785 -0.005280836714 -0.0001887754234
18.69 0.00288750531 -0.005280069704 -0.0001887872656
18.7 0.002888917644 -0.005279302334 -0.0001887990918
18.71 0.002890329788 -0.005278534605 -0.000188810902
18.72 0.00289174174 -0.005277766516 -0.0001888226961
18.73 0.002893153501 -0.005276998067 -0.0001888344742
18.74 0.002894565072 -0.005276229259 -0.0001888462362
18.75 0.002895976451 -0.005275460091 -0.0001888579822
18.76 0.002897387639 -0.005274690564 -0.0001888697121
18.77 0.002898798636 -0.005273920678 -0.0001888814259
18.78 0.002900209441 -0.005273150432 -0.0001888931237
18.79 0.002901620055 -0.005272379827 -0.0001889048055
18.8 0.002903030477 -0.005271608862 -0.0001889164711
18.81 0.002904440708 -0.005270837539 -0.0001889281208
18.82 0.002905850747 -0.005270065856 -0.0001889397543
18.83 0.002907260595 -0.005269293814 -0.0001889513718
18.84 0.00290867025 -0.005268521412 -0.0001889629732
18.85 0.002910079714 -0.005267748652 -0.0001889745586
18.86 0.002911488986 -0.005266975533 -0.0001889861279
18.87 0.002912898065 -0.005266202054 -0.0001889976812
18.88 0.002914306953 -0.005265428217 -0.0001890092183
18.89 0.002915715648 -0.00526465402 -0.0001890207394
18.9 0.002917124151 -0.005263879465 -0.0001890322445
18.91 0.002918532462 -0.005263104551 -0.0001890437335
18.92 0.00291994058 -0.005262329278 -0.0001890552064
18.93 0.002921348506 -0.005261553646 -0.0001890666632
18.94 0.002922756239 -0.005260777655 -0.000189078104
18.95 0.002924163779 -0.005260001306 -0.0001890895286
18.96 0.002925571127 -0.005259224598 -0.0001891009373
18.97 0.002926978282 -0.005258447531 -0.0001891123298
18.98 0.002928385244 -0.005257670106 -0.0001891237063
18.99 0.002929792013 -0.005256892322 -0.0001891350666
19 0.002931198588 -0.00525611418 -0.000189146411
19.01 0.002932604971 -0.005255335679 -0.0001891577392
19.02 0.002934011161 -0.00525455682 -0.0001891690513
19.03 0.002935417157 -0.005253777602 -0.0001891803474
19.04 0.00293682296 -0.005252998026 -0.0001891916274
19.05 0.00293822857 -0.005252218091 -0.0001892028913
19.06 0.002939633986 -0.005251437799 -0.0001892141391
19.07 0.002941039208 -0.005250657147 -0.0001892253709
19.08 0.002942444237 -0.005249876138 -0.0001892365865
19.09 0.002943849072 -0.005249094771 -0.0001892477861
19.1 0.002945253713 -0.005248313045 -0.0001892589696
19.11 0.00294665816 -0.005247530961 -0.000189270137
19.12 0.002948062414 -0.00524674852 -0.0001892812883
19.13 0.002949466473 -0.00524596572 -0.0001892924235
19.14 0.002950870338 -0.005245182562 -0.0001893035426
19.15 0.002952274009 -0.005244399046 -0.0001893146457
19.16 0.002953677486 -0.005243615172 -0.0001893257326
19.17 0.002955080768 -0.005242830941 -0.0001893368035
19.18 0.002956483856 -0.005242046351 -0.0001893478582
19.19 0.002957886749 -0.005241261404 -0.0001893588969
19.2 0.002959289448 -0.005240476099 -0.0001893699194
19.21 0.002960691952 -0.005239690436 -0.0001893809259
19.22 0.002962094262 -0.005238904415 -0.0001893919163
19.23 0.002963496376 -0.005238118037 -0.0001894028905
19.24 0.002964898296 -0.005237331301 -0.0001894138487
19.25 0.002966300021 -0.005236544208 -0.0001894247908
19.26 0.00296770155 -0.005235756757 -0.0001894357167
19.27 0.002969102885 -0.005234968949 -0.0001894466266
19.28 0.002970504024 -0.005234180783 -0.0001894575204
19.29 0.002971904968 -0.005233392259 -0.000189468398
19.3 0.002973305717 -0.005232603379 -0.0001894792596
19.31 0.00297470627 -0.005231814141 -0.000189490105
19.32 0.002976106628 -0.005231024545 -0.0001895009344
19.33 0.00297750679 -0.005230234593 -0.0001895117476
19.34 0.002978906757 -0.005229444283 -0.0001895225447
19.35 0.002980306528 -0.005228653616 -0.0001895333257
19.36 0.002981706103 -0.005227862591 -0.0001895440906
19.37 0.002983105482 -0.00522707121 -0.0001895548394
19.38 0.002984504665 -0.005226279471 -0.0001895655721
19.39 0.002985903652 -0.005225487376 -0.0001895762886
19.4 0.002987302443 -0.005224694923 -0.0001895869891
19.41 0.002988701038 -0.005223902114 -0.0001895976734
19.42 0.002990099437 -0.005223108947 -0.0001896083416
19.43 0.002991497639 -0.005222315424 -0.0001896189937
19.44 0.002992895644 -0.005221521544 -0.0001896296297
19.45 0.002994293454 -0.005220727307 -0.0001896402496
19.46 0.002995691066 -0.005219932713 -0.0001896508533
19.47 0.002997088482 -0.005219137762 -0.0001896614409
19.48 0.002998485702 -0.005218342455 -0.0001896720124
19.49 0.002999882724 -0.005217546791 -0.0001896825678
19.5 0.00300127955 -0.005216750771 -0.000189693107
19.51 0.003002676178 -0.005215954394 -0.0001897036302
19.52 0.00300407261 -0.00521515766 -0.0001897141372
19.53 0.003005468844 -0.00521436057 -0.000189724628
19.54 0.003006864882 -0.005213563123 -0.0001897351028
19.55 0.003008260722 -0.00521276532 -0.0001897455614
19.56 0.003009656364 -0.005211967161 -0.0001897560039
19.57 0.00301105181 -0.005211168645 -0.0001897664302
19.58 0.003012447057 -0.005210369773 -0.0001897768405
19.59 0.003013842108 -0.005209570544 -0.0001897872346
19.6 0.00301523696 -0.005208770959 -0.0001897976125
19.61 0.003016631615 -0.005207971019 -0.0001898079743
19.62 0.003018026072 -0.005207170721 -0.00018981832
19.63 0.003019420331 -0.005206370068 -0.0001898286496
19.64 0.003020814392 -0.005205569059 -0.000189838963
19.65 0.003022208255 -0.005204767694 -0.0001898492603
19.66 0.00302360192 -0.005203965972 -0.0001898595414
19.67 0.003024995387 -0.005203163895 -0.0001898698064
19.68 0.003026388656 -0.005202361462 -0.0001898800553
19.69 0.003027781726 -0.005201558673 -0.000189890288
19.7 0.003029174598 -0.005200755528 -0.0001899005046
19.71 0.003030567271 -0.005199952027 -0.000189910705
19.72 0.003031959746 -0.00519914817 -0.0001899208893
19.73 0.003033352022 -0.005198343958 -0.0001899310575
19.74 0.003034744099 -0.00519753939 -0.0001899412095
19.75 0.003036135978 -0.005196734466 -0.0001899513453
19.76 0.003037527658 -0.005195929187 -0.000189961465
19.77 0.003038919138 -0.005195123552 -0.0001899715686
19.78 0.00304031042 -0.005194317561 -0.000189981656
19.79 0.003041701503 -0.005193511215 -0.0001899917273
19.8 0.003043092386 -0.005192704514 -0.0001900017824
19.81 0.00304448307 -0.005191897457 -0.0001900118213
19.82 0.003045873555 -0.005191090044 -0.0001900218442
19.83 0.00304726384 -0.005190282277 -0.0001900318508
19.84 0.003048653926 -0.005189474154 -0.0001900418413
19.85 0.003050043813 -0.005188665676 -0.0001900518156
19.86 0.003051433499 -0.005187856842 -0.0001900617738
19.87 0.003052822986 -0.005187047653 -0.0001900717159
19.88 0.003054212274 -0.005186238109 -0.0001900816417
19.89 0.003055601361 -0.00518542821 -0.0001900915514
19.9 0.003056990248 -0.005184617956 -0.000190101445
19.91 0.003058378936 -0.005183807347 -0.0001901113224
19.92 0.003059767423 -0.005182996383 -0.0001901211836
19.93 0.00306115571 -0.005182185064 -0.0001901310287
19.94 0.003062543797 -0.00518137339 -0.0001901408576
19.95 0.003063931683 -0.005180561361 -0.0001901506703
19.96 0.003065319369 -0.005179748977 -0.0001901604669
19.97 0.003066706855 -0.005178936238 -0.0001901702473
19.98 0.00306809414 -0.005178123145 -0.0001901800115
19.99 0.003069481224 -0.005177309697 -0.0001901897596
20 0.003070868108 -0.005176495894 -0.0001901994915
20.01 0.003072254791 -0.005175681736 -0.0001902092072
20.02 0.003073641273 -0.005174867224 -0.0001902189068
20.03 0.003075027554 -0.005174052358 -0.0001902285902
20.04 0.003076413634 -0.005173237136 -0.0001902382574
20.05 0.003077799512 -0.005172421561 -0.0001902479084
20.06 0.00307918519 -0.00517160563 -0.0001902575433
20.07 0.003080570667 -0.005170789346 -0.000190267162
20.08 0.003081955942 -0.005169972707 -0.0001902767645
20.09 0.003083341016 -0.005169155713 -0.0001902863509
20.1 0.003084725888 -0.005168338365 -0.000190295921
20.11 0.003086110559 -0.005167520663 -0.000190305475
20.12 0.003087495028 -0.005166702607 -0.0001903150128
20.13 0.003088879295 -0.005165884197 -0.0001903245344
20.14 0.003090263361 -0.005165065432 -0.0001903340399
20.15 0.003091647224 -0.005164246313 -0.0001903435292
20.16 0.003093030886 -0.00516342684 -0.0001903530022
20.17 0.003094414346 -0.005162607014 -0.0001903624591
20.18 0.003095797603 -0.005161786833 -0.0001903718998
20.19 0.003097180659 -0.005160966298 -0.0001903813244
20.2 0.003098563512 -0.005160145409 -0.0001903907327
20.21 0.003099946163 -0.005159324167 -0.0001904001249
20.22 0.003101328611 -0.00515850257 -0.0001904095008
20.23 0.003102710857 -0.00515768062 -0.0001904188606
20.24 0.003104092901 -0.005156858316 -0.0001904282042
20.25 0.003105474742 -0.005156035658 -0.0001904375316
20.26 0.00310685638 -0.005155212646 -0.0001904468428
20.27 0.003108237815 -0.005154389281 -0.0001904561378
20.28 0.003109619048 -0.005153565562 -0.0001904654166
20.29 0.003111000077 -0.00515274149 -0.0001904746792
20.3 0.003112380904 -0.005151917064 -0.0001904839256
20.31 0.003113761527 -0.005151092285 -0.0001904931559
20.32 0.003115141947 -0.005150267152 -0.0001905023699
20.33 0.003116522164 -0.005149441666 -0.0001905115677
20.34 0.003117902178 -0.005148615826 -0.0001905207494
20.35 0.003119281988 -0.005147789633 -0.0001905299148
20.36 0.003120661595 -0.005146963087 -0.000190539064
20.37 0.003122040998 -0.005146136187 -0.0001905481971
20.38 0.003123420198 -0.005145308935 -0.0001905573139
20.39 0.003124799194 -0.005144481329 -0.0001905664145
20.4 0.003126177986 -0.005143653369 -0.000190575499
20.41 0.003127556574 -0.005142825057 -0.0001905845672
20.42 0.003128934959 -0.005141996392 -0.0001905936192
20.43 0.003130313139 -0.005141167374 -0.000190602655
20.44 0.003131691115 -0.005140338002 -0.0001906116746
20.45 0.003133068887 -0.005139508278 -0.000190620678
20.46 0.003134446455 -0.005138678201 -0.0001906296652
20.47 0.003135823819 -0.005137847771 -0.0001906386362
20.48 0.003137200978 -0.005137016988 -0.0001906475909
20.49 0.003138577932 -0.005136185852 -0.0001906565295
20.5 0.003139954683 -0.005135354364 -0.0001906654518
20.51 0.003141331228 -0.005134522523 -0.0001906743579
20.52 0.003142707569 -0.005133690329 -0.0001906832479
20.53 0.003144083705 -0.005132857782 -0.0001906921216
20.54 0.003145459636 -0.005132024883 -0.000190700979
20.55 0.003146835362 -0.005131191631 -0.0001907098203
20.56 0.003148210883 -0.005130358027 -0.0001907186453
20.57 0.0031495862 -0.005129524071 -0.0001907274542
20.58 0.00315096131 -0.005128689761 -0.0001907362468
20.59 0.003152336216 -0.0051278551 -0.0001907450232
20.6 0.003153710917 -0.005127020086 -0.0001907537833
20.61 0.003155085412 -0.00512618472 -0.0001907625273
20.62 0.003156459701 -0.005125349001 -0.000190771255
20.63 0.003157833785 -0.005124512931 -0.0001907799665
20.64 0.003159207664 -0.005123676508 -0.0001907886618
20.65 0.003160581336 -0.005122839732 -0.0001907973408
20.66 0.003161954803 -0.005122002605 -0.0001908060037
20.67 0.003163328064 -0.005121165126 -0.0001908146503
20.68 0.003164701119 -0.005120327294 -0.0001908232806
20.69 0.003166073969 -0.005119489111 -0.0001908318948
20.7 0.003167446612 -0.005118650576 -0.0001908404927
20.71 0.003168819048 -0.005117811688 -0.0001908490744
20.72 0.003170191279 -0.005116972449 -0.0001908576398
20.73 0.003171563304 -0.005116132858 -0.000190866189
20.74 0.003172935121 -0.005115292915 -0.000190874722
20.75 0.003174306733 -0.00511445262 -0.0001908832387
20.76 0.003175678138 -0.005113611974 -0.0001908917393
20.77 0.003177049336 -0.005112770976 -0.0001909002235
20.78 0.003178420328 -0.005111929626 -0.0001909086916
20.79 0.003179791113 -0.005111087924 -0.0001909171434
20.8 0.003181161691 -0.005110245871 -0.000190925579
20.81 0.003182532062 -0.005109403467 -0.0001909339983
20.82 0.003183902226 -0.005108560711 -0.0001909424014
20.83 0.003185272183 -0.005107717603 -0.0001909507882
20.84 0.003186641933 -0.005106874144 -0.0001909591588
20.85 0.003188011476 -0.005106030334 -0.0001909675132
20.86 0.003189380811 -0.005105186172 -0.0001909758513
20.87 0.003190749939 -0.005104341659 -0.0001909841732
20.88 0.003192118859 -0.005103496795 -0.0001909924788
20.89 0.003193487572 -0.00510265158 -0.0001910007682
20.9 0.003194856078 -0.005101806013 -0.0001910090414
20.91 0.003196224375 -0.005100960095 -0.0001910172983
20.92 0.003197592465 -0.005100113826 -0.0001910255389
20.93 0.003198960347 -0.005099267206 -0.0001910337633
20.94 0.003200328021 -0.005098420235 -0.0001910419715
20.95 0.003201695487 -0.005097572913 -0.0001910501634
20.96 0.003203062746 -0.00509672524 -0.000191058339
20.97 0.003204429795 -0.005095877216 -0.0001910664984
20.98 0.003205796637 -0.005095028841 -0.0001910746415
20.99 0.00320716327 -0.005094180116 -0.0001910827684
21 0.003208529695 -0.005093331039 -0.0001910908791
21.01 0.003209895912 -0.005092481612 -0.0001910989734
21.02 0.00321126192 -0.005091631834 -0.0001911070516
21.03 0.003212627719 -0.005090781706 -0.0001911151134
21.04 0.00321399331 -0.005089931227 -0.000191123159
21.05 0.003215358692 -0.005089080397 -0.0001911311884
21.06 0.003216723865 -0.005088229216 -0.0001911392015
21.07 0.003218088829 -0.005087377686 -0.0001911471983
21.08 0.003219453585 -0.005086525804 -0.0001911551789
21.09 0.003220818131 -0.005085673572 -0.0001911631432
21.1 0.003222182468 -0.00508482099 -0.0001911710912
21.11 0.003223546595 -0.005083968058 -0.000191179023
21.12 0.003224910514 -0.005083114775 -0.0001911869385
21.13 0.003226274223 -0.005082261142 -0.0001911948377
21.14 0.003227637723 -0.005081407158 -0.0001912027207
21.15 0.003229001013 -0.005080552825 -0.0001912105874
21.16 0.003230364093 -0.005079698141 -0.0001912184379
21.17 0.003231726964 -0.005078843107 -0.000191226272
21.18 0.003233089625 -0.005077987723 -0.00019123409
21.19 0.003234452076 -0.005077131989 -0.0001912418916
21.2 0.003235814317 -0.005076275905 -0.000191249677
21.21 0.003237176349 -0.005075419471 -0.000191257446
21.22 0.00323853817 -0.005074562687 -0.0001912651989
21.23 0.003239899781 -0.005073705553 -0.0001912729354
21.24 0.003241261182 -0.005072848069 -0.0001912806557
21.25 0.003242622373 -0.005071990236 -0.0001912883597
21.26 0.003243983353 -0.005071132053 -0.0001912960474
21.27 0.003245344123 -0.00507027352 -0.0001913037189
21.28 0.003246704682 -0.005069414637 -0.000191311374
21.29 0.00324806503 -0.005068555405 -0.0001913190129
21.3 0.003249425168 -0.005067695823 -0.0001913266355
21.31 0.003250785096 -0.005066835891 -0.0001913342418
21.32 0.003252144812 -0.00506597561 -0.0001913418319
21.33 0.003253504317 -0.00506511498 -0.0001913494057
21.34 0.003254863612 -0.005064254 -0.0001913569631
21.35 0.003256222695 -0.005063392671 -0.0001913645043
21.36 0.003257581567 -0.005062530992 -0.0001913720293
21.37 0.003258940228 -0.005061668964 -0.0001913795379
21.38 0.003260298678 -0.005060806586 -0.0001913870302
21.39 0.003261656917 -0.00505994386 -0.0001913945063
21.4 0.003263014944 -0.005059080784 -0.0001914019661
21.41 0.003264372759 -0.005058217359 -0.0001914094095
21.42 0.003265730363 -0.005057353585 -0.0001914168367
21.43 0.003267087755 -0.005056489462 -0.0001914242476
21.44 0.003268444935 -0.005055624989 -0.0001914316423
21.45 0.003269801904 -0.005054760168 -0.0001914390206
21.46 0.00327115866 -0.005053894998 -0.0001914463826
21.47 0.003272515205 -0.005053029479 -0.0001914537283
21.48 0.003273871538 -0.00505216361 -0.0001914610578
21.49 0.003275227658 -0.005051297393 -0.0001914683709
21.5 0.003276583566 -0.005050430828 -0.0001914756678
21.51 0.003277939262 -0.005049563913 -0.0001914829483
21.52 0.003279294746 -0.00504869665 -0.0001914902126
21.53 0.003280650017 -0.005047829038 -0.0001914974606
21.54 0.003282005076 -0.005046961077 -0.0001915046922
21.55 0.003283359922 -0.005046092768 -0.0001915119076
21.56 0.003284714555 -0.00504522411 -0.0001915191067
21.57 0.003286068976 -0.005044355104 -0.0001915262894
21.58 0.003287423184 -0.005043485749 -0.0001915334559
21.59 0.003288777178 -0.005042616046 -0.000191540606
21.6 0.00329013096 -0.005041745994 -0.0001915477399
21.61 0.003291484529 -0.005040875594 -0.0001915548574
21.62 0.003292837885 -0.005040004846 -0.0001915619587
21.63 0.003294191027 -0.005039133749 -0.0001915690436
21.64 0.003295543957 -0.005038262304 -0.0001915761123
21.65 0.003296896672 -0.005037390511 -0.0001915831646
21.66 0.003298249175 -0.005036518369 -0.0001915902006
21.67 0.003299601464 -0.00503564588 -0.0001915972203
21.68 0.003300953539 -0.005034773042 -0.0001916042237
21.69 0.003302305401 -0.005033899857 -0.0001916112108
21.7 0.003303657049 -0.005033026323 -0.0001916181816
21.71 0.003305008483 -0.005032152441 -0.000191625136
21.72 0.003306359703 -0.005031278212 -0.0001916320742
21.73 0.003307710709 -0.005030403634 -0.000191638996
21.74 0.003309061501 -0.005029528709 -0.0001916459015
21.75 0.003310412079 -0.005028653436 -0.0001916527907
21.76 0.003311762443 -0.005027777815 -0.0001916596636
21.77 0.003313112592 -0.005026901846 -0.0001916665202
21.78 0.003314462527 -0.00502602553 -0.0001916733605
21.79 0.003315812248 -0.005025148866 -0.0001916801844
21.8 0.003317161754 -0.005024271854 -0.000191686992
21.81 0.003318511046 -0.005023394495 -0.0001916937833
21.82 0.003319860123 -0.005022516788 -0.0001917005583
21.83 0.003321208985 -0.005021638734 -0.000191707317
21.84 0.003322557632 -0.005020760332 -0.0001917140593
21.85 0.003323906065 -0.005019881583 -0.0001917207853
21.86 0.003325254282 -0.005019002487 -0.000191727495
21.87 0.003326602285 -0.005018123043 -0.0001917341884
21.88 0.003327950072 -0.005017243252 -0.0001917408654
21.89 0.003329297644 -0.005016363114 -0.0001917475261
21.9 0.003330645001 -0.005015482628 -0.0001917541705
21.91 0.003331992143 -0.005014601795 -0.0001917607985
21.92 0.003333339069 -0.005013720615 -0.0001917674103
21.93 0.003334685779 -0.005012839088 -0.0001917740057
21.94 0.003336032274 -0.005011957214 -0.0001917805847
21.95 0.003337378553 -0.005011074993 -0.0001917871475
21.96 0.003338724617 -0.005010192425 -0.0001917936939
21.97 0.003340070465 -0.00500930951 -0.000191800224
21.98 0.003341416096 -0.005008426249 -0.0001918067377
21.99 0.003342761512 -0.00500754264 -0.0001918132351
22 0.003344106712 -0.005006658684 -0.0001918197162
22.01 0.003345451696 -0.005005774382 -0.0001918261809
22.02 0.003346796463 -0.005004889733 -0.0001918326293
22.03 0.003348141015 -0.005004004737 -0.0001918390614
22.04 0.003349485349 -0.005003119395 -0.0001918454771
22.05 0.003350829468 -0.005002233706 -0.0001918518765
22.06 0.00335217337 -0.005001347671 -0.0001918582595
22.07 0.003353517055 -0.005000461289 -0.0001918646262
22.08 0.003354860524 -0.00499957456 -0.0001918709766
22.09 0.003356203776 -0.004998687485 -0.0001918773106
22.1 0.003357546811 -0.004997800064 -0.0001918836283
22.11 0.003358889629 -0.004996912296 -0.0001918899296
22.12 0.00336023223 -0.004996024182 -0.0001918962146
22.13 0.003361574614 -0.004995135721 -0.0001919024833
22.14 0.003362916781 -0.004994246915 -0.0001919087356
22.15 0.003364258731 -0.004993357762 -0.0001919149715
22.16 0.003365600464 -0.004992468263 -0.0001919211911
22.17 0.003366941979 -0.004991578418 -0.0001919273944
22.18 0.003368283277 -0.004990688227 -0.0001919335813
22.19 0.003369624357 -0.004989797689 -0.0001919397519
22.2 0.00337096522 -0.004988906806 -0.0001919459061
22.21 0.003372305865 -0.004988015577 -0.000191952044
22.22 0.003373646292 -0.004987124002 -0.0001919581655
22.23 0.003374986502 -0.004986232081 -0.0001919642706
22.24 0.003376326493 -0.004985339814 -0.0001919703594
22.25 0.003377666267 -0.004984447201 -0.0001919764319
22.26 0.003379005823 -0.004983554243 -0.000191982488
22.27 0.00338034516 -0.004982660938 -0.0001919885277
22.28 0.003381684279 -0.004981767288 -0.0001919945511
22.29 0.00338302318 -0.004980873293 -0.0001920005581
22.3 0.003384361863 -0.004979978952 -0.0001920065488
22.31 0.003385700327 -0.004979084265 -0.0001920125231
22.32 0.003387038573 -0.004978189233 -0.0001920184811
22.33 0.0033883766 -0.004977293855 -0.0001920244227
22.34 0.003389714409 -0.004976398132 -0.0001920303479
22.35 0.003391051999 -0.004975502064 -0.0001920362568
22.36 0.00339238937 -0.00497460565 -0.0001920421493
22.37 0.003393726522 -0.004973708891 -0.0001920480254
22.38 0.003395063455 -0.004972811786 -0.0001920538852
22.39 0.003396400169 -0.004971914337 -0.0001920597286
22.4 0.003397736664 -0.004971016542 -0.0001920655557
22.41 0.003399072939 -0.004970118402 -0.0001920713664
22.42 0.003400408996 -0.004969219917 -0.0001920771607
22.43 0.003401744833 -0.004968321087 -0.0001920829386
22.44 0.003403080451 -0.004967421911 -0.0001920887002
22.45 0.003404415849 -0.004966522391 -0.0001920944454
22.46 0.003405751028 -0.004965622526 -0.0001921001743
